# Sz88A_XS_bin1_Av3_0 
# wave (A)   flux (erg/s/cm^2/A)      
 3000.000  0.00000e+00
 3001.000  0.00000e+00
 3002.000  0.00000e+00
 3003.000  0.00000e+00
 3004.000  0.00000e+00
 3005.000  0.00000e+00
 3006.000  0.00000e+00
 3007.000  0.00000e+00
 3008.000  0.00000e+00
 3009.000  0.00000e+00
 3010.000  0.00000e+00
 3011.000  0.00000e+00
 3012.000  0.00000e+00
 3013.000  0.00000e+00
 3014.000  0.00000e+00
 3015.000  0.00000e+00
 3016.000  0.00000e+00
 3017.000  0.00000e+00
 3018.000  0.00000e+00
 3019.000  0.00000e+00
 3020.000  0.00000e+00
 3021.000  0.00000e+00
 3022.000  0.00000e+00
 3023.000  0.00000e+00
 3024.000  0.00000e+00
 3025.000  0.00000e+00
 3026.000  0.00000e+00
 3027.000  0.00000e+00
 3028.000  0.00000e+00
 3029.000  0.00000e+00
 3030.000  0.00000e+00
 3031.000  0.00000e+00
 3032.000  0.00000e+00
 3033.000  0.00000e+00
 3034.000  0.00000e+00
 3035.000  0.00000e+00
 3036.000  0.00000e+00
 3037.000  0.00000e+00
 3038.000  0.00000e+00
 3039.000  0.00000e+00
 3040.000  0.00000e+00
 3041.000  0.00000e+00
 3042.000  0.00000e+00
 3043.000  0.00000e+00
 3044.000  0.00000e+00
 3045.000  0.00000e+00
 3046.000  0.00000e+00
 3047.000  0.00000e+00
 3048.000  0.00000e+00
 3049.000  0.00000e+00
 3050.000  0.00000e+00
 3051.000  0.00000e+00
 3052.000  0.00000e+00
 3053.000  0.00000e+00
 3054.000  0.00000e+00
 3055.000  0.00000e+00
 3056.000  0.00000e+00
 3057.000  0.00000e+00
 3058.000  0.00000e+00
 3059.000  0.00000e+00
 3060.000  0.00000e+00
 3061.000  0.00000e+00
 3062.000  0.00000e+00
 3063.000  0.00000e+00
 3064.000  0.00000e+00
 3065.000  0.00000e+00
 3066.000  0.00000e+00
 3067.000  0.00000e+00
 3068.000  0.00000e+00
 3069.000  0.00000e+00
 3070.000  0.00000e+00
 3071.000  0.00000e+00
 3072.000  0.00000e+00
 3073.000  0.00000e+00
 3074.000  0.00000e+00
 3075.000  0.00000e+00
 3076.000  0.00000e+00
 3077.000  0.00000e+00
 3078.000  0.00000e+00
 3079.000  0.00000e+00
 3080.000  0.00000e+00
 3081.000  0.00000e+00
 3082.000  0.00000e+00
 3083.000  0.00000e+00
 3084.000  0.00000e+00
 3085.000  0.00000e+00
 3086.000  0.00000e+00
 3087.000  0.00000e+00
 3088.000  0.00000e+00
 3089.000  0.00000e+00
 3090.000  0.00000e+00
 3091.000  0.00000e+00
 3092.000  0.00000e+00
 3093.000  0.00000e+00
 3094.000  0.00000e+00
 3095.000  0.00000e+00
 3096.000  0.00000e+00
 3097.000  0.00000e+00
 3098.000  0.00000e+00
 3099.000  0.00000e+00
 3100.000  0.00000e+00
 3101.000  0.00000e+00
 3102.000  0.00000e+00
 3103.000  0.00000e+00
 3104.000  0.00000e+00
 3105.000  0.00000e+00
 3106.000  0.00000e+00
 3107.000  0.00000e+00
 3108.000  0.00000e+00
 3109.000  0.00000e+00
 3110.000  0.00000e+00
 3111.000  0.00000e+00
 3112.000  0.00000e+00
 3113.000  0.00000e+00
 3114.000  0.00000e+00
 3115.000  0.00000e+00
 3116.000  0.00000e+00
 3117.000  0.00000e+00
 3118.000  0.00000e+00
 3119.000  0.00000e+00
 3120.000  0.00000e+00
 3121.000  0.00000e+00
 3122.000  0.00000e+00
 3123.000  0.00000e+00
 3124.000  0.00000e+00
 3125.000  0.00000e+00
 3126.000  0.00000e+00
 3127.000  0.00000e+00
 3128.000  0.00000e+00
 3129.000  0.00000e+00
 3130.000  0.00000e+00
 3131.000  0.00000e+00
 3132.000  0.00000e+00
 3133.000  0.00000e+00
 3134.000  0.00000e+00
 3135.000  0.00000e+00
 3136.000  0.00000e+00
 3137.000  0.00000e+00
 3138.000  0.00000e+00
 3139.000  0.00000e+00
 3140.000  0.00000e+00
 3141.000  0.00000e+00
 3142.000  0.00000e+00
 3143.000  0.00000e+00
 3144.000  0.00000e+00
 3145.000  0.00000e+00
 3146.000  0.00000e+00
 3147.000  0.00000e+00
 3148.000  0.00000e+00
 3149.000  0.00000e+00
 3150.000  0.00000e+00
 3151.000  0.00000e+00
 3152.000  0.00000e+00
 3153.000  0.00000e+00
 3154.000  0.00000e+00
 3155.000  0.00000e+00
 3156.000  0.00000e+00
 3157.000  0.00000e+00
 3158.000  0.00000e+00
 3159.000  0.00000e+00
 3160.000  0.00000e+00
 3161.000  0.00000e+00
 3162.000  0.00000e+00
 3163.000  0.00000e+00
 3164.000  0.00000e+00
 3165.000  0.00000e+00
 3166.000  0.00000e+00
 3167.000  0.00000e+00
 3168.000  0.00000e+00
 3169.000  0.00000e+00
 3170.000  0.00000e+00
 3171.000  0.00000e+00
 3172.000  0.00000e+00
 3173.000  0.00000e+00
 3174.000  0.00000e+00
 3175.000  0.00000e+00
 3176.000  0.00000e+00
 3177.000  0.00000e+00
 3178.000  0.00000e+00
 3179.000  0.00000e+00
 3180.000  0.00000e+00
 3181.000  0.00000e+00
 3182.000  0.00000e+00
 3183.000  0.00000e+00
 3184.000  0.00000e+00
 3185.000  0.00000e+00
 3186.000  0.00000e+00
 3187.000  0.00000e+00
 3188.000  0.00000e+00
 3189.000  0.00000e+00
 3190.000  0.00000e+00
 3191.000  0.00000e+00
 3192.000  0.00000e+00
 3193.000  0.00000e+00
 3194.000  0.00000e+00
 3195.000  0.00000e+00
 3196.000  0.00000e+00
 3197.000  0.00000e+00
 3198.000  0.00000e+00
 3199.000  0.00000e+00
 3200.000  0.00000e+00
 3201.000  0.00000e+00
 3202.000  0.00000e+00
 3203.000  0.00000e+00
 3204.000  0.00000e+00
 3205.000  0.00000e+00
 3206.000  0.00000e+00
 3207.000  0.00000e+00
 3208.000  0.00000e+00
 3209.000  0.00000e+00
 3210.000  0.00000e+00
 3211.000  0.00000e+00
 3212.000  0.00000e+00
 3213.000  0.00000e+00
 3214.000  0.00000e+00
 3215.000  0.00000e+00
 3216.000  0.00000e+00
 3217.000  0.00000e+00
 3218.000  0.00000e+00
 3219.000  0.00000e+00
 3220.000  0.00000e+00
 3221.000  0.00000e+00
 3222.000  0.00000e+00
 3223.000  0.00000e+00
 3224.000  0.00000e+00
 3225.000  0.00000e+00
 3226.000  0.00000e+00
 3227.000  0.00000e+00
 3228.000  0.00000e+00
 3229.000  0.00000e+00
 3230.000  0.00000e+00
 3231.000  0.00000e+00
 3232.000  0.00000e+00
 3233.000  0.00000e+00
 3234.000  0.00000e+00
 3235.000  0.00000e+00
 3236.000  0.00000e+00
 3237.000  0.00000e+00
 3238.000  0.00000e+00
 3239.000  0.00000e+00
 3240.000  0.00000e+00
 3241.000  0.00000e+00
 3242.000  0.00000e+00
 3243.000  0.00000e+00
 3244.000  0.00000e+00
 3245.000  0.00000e+00
 3246.000  0.00000e+00
 3247.000  0.00000e+00
 3248.000  0.00000e+00
 3249.000  0.00000e+00
 3250.000  0.00000e+00
 3251.000  0.00000e+00
 3252.000  0.00000e+00
 3253.000  0.00000e+00
 3254.000  0.00000e+00
 3255.000  0.00000e+00
 3256.000  0.00000e+00
 3257.000  0.00000e+00
 3258.000  0.00000e+00
 3259.000  0.00000e+00
 3260.000  0.00000e+00
 3261.000  0.00000e+00
 3262.000  0.00000e+00
 3263.000  0.00000e+00
 3264.000  0.00000e+00
 3265.000  0.00000e+00
 3266.000  0.00000e+00
 3267.000  0.00000e+00
 3268.000  0.00000e+00
 3269.000  0.00000e+00
 3270.000  0.00000e+00
 3271.000  0.00000e+00
 3272.000  0.00000e+00
 3273.000  0.00000e+00
 3274.000  0.00000e+00
 3275.000  0.00000e+00
 3276.000  0.00000e+00
 3277.000  0.00000e+00
 3278.000  0.00000e+00
 3279.000  0.00000e+00
 3280.000  0.00000e+00
 3281.000  0.00000e+00
 3282.000  0.00000e+00
 3283.000  0.00000e+00
 3284.000  0.00000e+00
 3285.000  0.00000e+00
 3286.000  0.00000e+00
 3287.000  0.00000e+00
 3288.000  0.00000e+00
 3289.000  0.00000e+00
 3290.000  0.00000e+00
 3291.000  0.00000e+00
 3292.000  0.00000e+00
 3293.000  0.00000e+00
 3294.000  0.00000e+00
 3295.000  0.00000e+00
 3296.000  0.00000e+00
 3297.000  0.00000e+00
 3298.000  0.00000e+00
 3299.000  0.00000e+00
 3300.000  3.12807e-16
 3301.000  3.07811e-16
 3302.000  3.15972e-16
 3303.000  4.05659e-16
 3304.000  3.37847e-16
 3305.000  3.10851e-16
 3306.000  3.22992e-16
 3307.000  3.26480e-16
 3308.000  3.12662e-16
 3309.000  3.22143e-16
 3310.000  3.08216e-16
 3311.000  3.09579e-16
 3312.000  3.25175e-16
 3313.000  3.27306e-16
 3314.000  3.44629e-16
 3315.000  3.30735e-16
 3316.000  3.21866e-16
 3317.000  3.23341e-16
 3318.000  3.33373e-16
 3319.000  3.24693e-16
 3320.000  3.24640e-16
 3321.000  3.35600e-16
 3322.000  3.61361e-16
 3323.000  3.79103e-16
 3324.000  3.42362e-16
 3325.000  3.26449e-16
 3326.000  3.27251e-16
 3327.000  3.33855e-16
 3328.000  3.42288e-16
 3329.000  3.66951e-16
 3330.000  3.54513e-16
 3331.000  3.30504e-16
 3332.000  3.52379e-16
 3333.000  3.36074e-16
 3334.000  3.39536e-16
 3335.000  3.64717e-16
 3336.000  3.54986e-16
 3337.000  3.39617e-16
 3338.000  3.30477e-16
 3339.000  3.41806e-16
 3340.000  3.58717e-16
 3341.000  3.52637e-16
 3342.000  3.60756e-16
 3343.000  3.45535e-16
 3344.000  3.39243e-16
 3345.000  3.25171e-16
 3346.000  3.36609e-16
 3347.000  3.53043e-16
 3348.000  3.71122e-16
 3349.000  4.22947e-16
 3350.000  3.71557e-16
 3351.000  3.41782e-16
 3352.000  3.30660e-16
 3353.000  3.41109e-16
 3354.000  3.43816e-16
 3355.000  3.55377e-16
 3356.000  3.42886e-16
 3357.000  3.45366e-16
 3358.000  3.65647e-16
 3359.000  3.61807e-16
 3360.000  3.90922e-16
 3361.000  4.19678e-16
 3362.000  3.63327e-16
 3363.000  3.44910e-16
 3364.000  3.32889e-16
 3365.000  3.35598e-16
 3366.000  3.49874e-16
 3367.000  3.61297e-16
 3368.000  3.81093e-16
 3369.000  3.56604e-16
 3370.000  3.42300e-16
 3371.000  3.35811e-16
 3372.000  3.85839e-16
 3373.000  4.02268e-16
 3374.000  3.63000e-16
 3375.000  3.43335e-16
 3376.000  3.43606e-16
 3377.000  3.43496e-16
 3378.000  3.63681e-16
 3379.000  3.69551e-16
 3380.000  4.16227e-16
 3381.000  3.75491e-16
 3382.000  3.72970e-16
 3383.000  3.94521e-16
 3384.000  4.01455e-16
 3385.000  3.55602e-16
 3386.000  3.50855e-16
 3387.000  3.73056e-16
 3388.000  4.02286e-16
 3389.000  3.63435e-16
 3390.000  3.55968e-16
 3391.000  3.68844e-16
 3392.000  3.71558e-16
 3393.000  3.78163e-16
 3394.000  4.06187e-16
 3395.000  3.91022e-16
 3396.000  3.64884e-16
 3397.000  3.57124e-16
 3398.000  3.61374e-16
 3399.000  3.66886e-16
 3400.000  3.62657e-16
 3401.000  3.67042e-16
 3402.000  3.78719e-16
 3403.000  4.06759e-16
 3404.000  3.70692e-16
 3405.000  3.54550e-16
 3406.000  3.66450e-16
 3407.000  3.87084e-16
 3408.000  3.92737e-16
 3409.000  3.98851e-16
 3410.000  3.71885e-16
 3411.000  3.58574e-16
 3412.000  3.57459e-16
 3413.000  3.67281e-16
 3414.000  3.68687e-16
 3415.000  3.76328e-16
 3416.000  3.75558e-16
 3417.000  3.68232e-16
 3418.000  3.76016e-16
 3419.000  3.75954e-16
 3420.000  3.77191e-16
 3421.000  4.14352e-16
 3422.000  4.07351e-16
 3423.000  4.11350e-16
 3424.000  3.84137e-16
 3425.000  3.83136e-16
 3426.000  3.78603e-16
 3427.000  3.84604e-16
 3428.000  3.83051e-16
 3429.000  3.77961e-16
 3430.000  3.74515e-16
 3431.000  3.73387e-16
 3432.000  3.72785e-16
 3433.000  4.15251e-16
 3434.000  3.86051e-16
 3435.000  3.75428e-16
 3436.000  3.86473e-16
 3437.000  3.81441e-16
 3438.000  3.91533e-16
 3439.000  4.02406e-16
 3440.000  4.09440e-16
 3441.000  4.56391e-16
 3442.000  4.66880e-16
 3443.000  4.08145e-16
 3444.000  4.32125e-16
 3445.000  3.98033e-16
 3446.000  3.91403e-16
 3447.000  3.87903e-16
 3448.000  3.83528e-16
 3449.000  3.94909e-16
 3450.000  3.88109e-16
 3451.000  3.78897e-16
 3452.000  3.85341e-16
 3453.000  3.92442e-16
 3454.000  3.94257e-16
 3455.000  3.85918e-16
 3456.000  3.90370e-16
 3457.000  3.98434e-16
 3458.000  4.01964e-16
 3459.000  4.11067e-16
 3460.000  4.90197e-16
 3461.000  4.48375e-16
 3462.000  4.04448e-16
 3463.000  3.91054e-16
 3464.000  3.95136e-16
 3465.000  3.94151e-16
 3466.000  4.08636e-16
 3467.000  3.85950e-16
 3468.000  3.89253e-16
 3469.000  4.00019e-16
 3470.000  3.89741e-16
 3471.000  4.01828e-16
 3472.000  4.02343e-16
 3473.000  4.11143e-16
 3474.000  4.54561e-16
 3475.000  4.49584e-16
 3476.000  4.17256e-16
 3477.000  4.26111e-16
 3478.000  4.01880e-16
 3479.000  4.06058e-16
 3480.000  4.02109e-16
 3481.000  4.05662e-16
 3482.000  4.24909e-16
 3483.000  4.62635e-16
 3484.000  4.10046e-16
 3485.000  4.03138e-16
 3486.000  3.98575e-16
 3487.000  4.03067e-16
 3488.000  4.35962e-16
 3489.000  4.28282e-16
 3490.000  4.21082e-16
 3491.000  4.24763e-16
 3492.000  4.03785e-16
 3493.000  4.32421e-16
 3494.000  4.19416e-16
 3495.000  4.47227e-16
 3496.000  4.33568e-16
 3497.000  4.48105e-16
 3498.000  4.19407e-16
 3499.000  4.08897e-16
 3500.000  4.08549e-16
 3501.000  4.06701e-16
 3502.000  4.11703e-16
 3503.000  4.20068e-16
 3504.000  4.17244e-16
 3505.000  4.24404e-16
 3506.000  4.17437e-16
 3507.000  4.17714e-16
 3508.000  4.19537e-16
 3509.000  4.21569e-16
 3510.000  4.26215e-16
 3511.000  4.24121e-16
 3512.000  4.22860e-16
 3513.000  4.29514e-16
 3514.000  4.36415e-16
 3515.000  4.29936e-16
 3516.000  4.16736e-16
 3517.000  4.20842e-16
 3518.000  4.22260e-16
 3519.000  4.16529e-16
 3520.000  4.24394e-16
 3521.000  4.26212e-16
 3522.000  4.21216e-16
 3523.000  4.22737e-16
 3524.000  4.29203e-16
 3525.000  4.27057e-16
 3526.000  4.46516e-16
 3527.000  4.21694e-16
 3528.000  4.24617e-16
 3529.000  4.21734e-16
 3530.000  4.27724e-16
 3531.000  4.26309e-16
 3532.000  4.33730e-16
 3533.000  4.29780e-16
 3534.000  4.27137e-16
 3535.000  4.38246e-16
 3536.000  4.35682e-16
 3537.000  4.26901e-16
 3538.000  4.25948e-16
 3539.000  4.35968e-16
 3540.000  4.34145e-16
 3541.000  4.34572e-16
 3542.000  4.31429e-16
 3543.000  4.26594e-16
 3544.000  4.39874e-16
 3545.000  4.48463e-16
 3546.000  4.33187e-16
 3547.000  4.27059e-16
 3548.000  4.40155e-16
 3549.000  4.28550e-16
 3550.000  4.33669e-16
 3551.000  4.44320e-16
 3552.000  4.36653e-16
 3553.000  4.40452e-16
 3554.000  4.49486e-16
 3555.000  4.44541e-16
 3556.000  4.39534e-16
 3557.000  4.48676e-16
 3558.000  4.38080e-16
 3559.000  4.40911e-16
 3560.000  4.39586e-16
 3561.000  4.43747e-16
 3562.000  4.39104e-16
 3563.000  4.34823e-16
 3564.000  4.40333e-16
 3565.000  4.59001e-16
 3566.000  4.57368e-16
 3567.000  4.41515e-16
 3568.000  4.47232e-16
 3569.000  4.57098e-16
 3570.000  4.77518e-16
 3571.000  4.46668e-16
 3572.000  4.52156e-16
 3573.000  4.59015e-16
 3574.000  4.53311e-16
 3575.000  4.58096e-16
 3576.000  4.56927e-16
 3577.000  4.60258e-16
 3578.000  4.66838e-16
 3579.000  4.68009e-16
 3580.000  4.64267e-16
 3581.000  5.09843e-16
 3582.000  4.67236e-16
 3583.000  4.51028e-16
 3584.000  4.58537e-16
 3585.000  4.88135e-16
 3586.000  4.68582e-16
 3587.000  4.83191e-16
 3588.000  4.65483e-16
 3589.000  4.70449e-16
 3590.000  4.66820e-16
 3591.000  4.59696e-16
 3592.000  4.64014e-16
 3593.000  4.77088e-16
 3594.000  4.62864e-16
 3595.000  4.56903e-16
 3596.000  4.63553e-16
 3597.000  4.64658e-16
 3598.000  4.58588e-16
 3599.000  4.58613e-16
 3600.000  4.63400e-16
 3601.000  4.55180e-16
 3602.000  4.68291e-16
 3603.000  4.75903e-16
 3604.000  4.68694e-16
 3605.000  4.88511e-16
 3606.000  4.63549e-16
 3607.000  4.69527e-16
 3608.000  4.81081e-16
 3609.000  4.92376e-16
 3610.000  4.81832e-16
 3611.000  4.61564e-16
 3612.000  4.71167e-16
 3613.000  4.83173e-16
 3614.000  4.75849e-16
 3615.000  4.72264e-16
 3616.000  4.74076e-16
 3617.000  4.68322e-16
 3618.000  4.83595e-16
 3619.000  4.90396e-16
 3620.000  4.72971e-16
 3621.000  4.83930e-16
 3622.000  4.69915e-16
 3623.000  4.78958e-16
 3624.000  4.69968e-16
 3625.000  4.78727e-16
 3626.000  4.72055e-16
 3627.000  4.71556e-16
 3628.000  4.69780e-16
 3629.000  4.74475e-16
 3630.000  4.83096e-16
 3631.000  5.08166e-16
 3632.000  4.88454e-16
 3633.000  4.83282e-16
 3634.000  5.05274e-16
 3635.000  4.79686e-16
 3636.000  4.82099e-16
 3637.000  4.76977e-16
 3638.000  4.84844e-16
 3639.000  4.85394e-16
 3640.000  4.75387e-16
 3641.000  4.86410e-16
 3642.000  4.78289e-16
 3643.000  4.93324e-16
 3644.000  4.79922e-16
 3645.000  4.85409e-16
 3646.000  4.82569e-16
 3647.000  4.82633e-16
 3648.000  4.77416e-16
 3649.000  4.88720e-16
 3650.000  4.88959e-16
 3651.000  4.91332e-16
 3652.000  4.88668e-16
 3653.000  4.81639e-16
 3654.000  4.86551e-16
 3655.000  4.86969e-16
 3656.000  4.92922e-16
 3657.000  4.85583e-16
 3658.000  4.80633e-16
 3659.000  4.96117e-16
 3660.000  4.92487e-16
 3661.000  4.91923e-16
 3662.000  5.01625e-16
 3663.000  4.92842e-16
 3664.000  4.91359e-16
 3665.000  4.99695e-16
 3666.000  4.99094e-16
 3667.000  4.96111e-16
 3668.000  4.91087e-16
 3669.000  4.99980e-16
 3670.000  4.90165e-16
 3671.000  5.03038e-16
 3672.000  4.80953e-16
 3673.000  4.90161e-16
 3674.000  5.16400e-16
 3675.000  4.47958e-16
 3676.000  5.49106e-16
 3677.000  4.84519e-16
 3678.000  4.58586e-16
 3679.000  5.81507e-16
 3680.000  4.83756e-16
 3681.000  3.87067e-16
 3682.000  5.36079e-16
 3683.000  5.87476e-16
 3684.000  4.34446e-16
 3685.000  4.67440e-16
 3686.000  5.71044e-16
 3687.000  6.39840e-16
 3688.000  4.18766e-16
 3689.000  3.20291e-16
 3690.000  4.20182e-16
 3691.000  6.35630e-16
 3692.000  5.91200e-16
 3693.000  3.64369e-16
 3694.000  3.04011e-16
 3695.000  3.24194e-16
 3696.000  5.32203e-16
 3697.000  7.45302e-16
 3698.000  5.23341e-16
 3699.000  3.15238e-16
 3700.000  2.76358e-16
 3701.000  2.93665e-16
 3702.000  3.85727e-16
 3703.000  6.50956e-16
 3704.000  7.76957e-16
 3705.000  5.26920e-16
 3706.000  4.12624e-16
 3707.000  3.02118e-16
 3708.000  2.83016e-16
 3709.000  3.27994e-16
 3710.000  3.86194e-16
 3711.000  6.64880e-16
 3712.000  8.15251e-16
 3713.000  5.24391e-16
 3714.000  3.20445e-16
 3715.000  2.80509e-16
 3716.000  2.57175e-16
 3717.000  2.54517e-16
 3718.000  2.71257e-16
 3719.000  3.59160e-16
 3720.000  5.20266e-16
 3721.000  7.43414e-16
 3722.000  8.82005e-16
 3723.000  5.38469e-16
 3724.000  3.27326e-16
 3725.000  2.63303e-16
 3726.000  2.49428e-16
 3727.000  3.00996e-16
 3728.000  2.79582e-16
 3729.000  2.53866e-16
 3730.000  2.69264e-16
 3731.000  2.87596e-16
 3732.000  3.75661e-16
 3733.000  6.64659e-16
 3734.000  9.58885e-16
 3735.000  7.64850e-16
 3736.000  4.83962e-16
 3737.000  4.63127e-16
 3738.000  2.97856e-16
 3739.000  2.60465e-16
 3740.000  2.52113e-16
 3741.000  2.70994e-16
 3742.000  2.75775e-16
 3743.000  2.86937e-16
 3744.000  2.73680e-16
 3745.000  3.47233e-16
 3746.000  3.51926e-16
 3747.000  3.32447e-16
 3748.000  5.33125e-16
 3749.000  8.22871e-16
 3750.000  1.02513e-15
 3751.000  7.03937e-16
 3752.000  3.92333e-16
 3753.000  2.83364e-16
 3754.000  2.55075e-16
 3755.000  2.49041e-16
 3756.000  2.47253e-16
 3757.000  2.78882e-16
 3758.000  3.53874e-16
 3759.000  3.73155e-16
 3760.000  3.23883e-16
 3761.000  3.23799e-16
 3762.000  2.81739e-16
 3763.000  2.77306e-16
 3764.000  3.03147e-16
 3765.000  2.67526e-16
 3766.000  2.78548e-16
 3767.000  3.29124e-16
 3768.000  3.86525e-16
 3769.000  6.40179e-16
 3770.000  1.07037e-15
 3771.000  9.49212e-16
 3772.000  5.57645e-16
 3773.000  3.38972e-16
 3774.000  2.68579e-16
 3775.000  2.63780e-16
 3776.000  2.63261e-16
 3777.000  2.45017e-16
 3778.000  2.45937e-16
 3779.000  2.39007e-16
 3780.000  2.29302e-16
 3781.000  2.33003e-16
 3782.000  2.36576e-16
 3783.000  2.56729e-16
 3784.000  2.38663e-16
 3785.000  2.32633e-16
 3786.000  2.48990e-16
 3787.000  2.50868e-16
 3788.000  2.59063e-16
 3789.000  2.46970e-16
 3790.000  2.52640e-16
 3791.000  2.50893e-16
 3792.000  2.64719e-16
 3793.000  2.81490e-16
 3794.000  3.19572e-16
 3795.000  3.97899e-16
 3796.000  6.28571e-16
 3797.000  1.10250e-15
 3798.000  1.14186e-15
 3799.000  7.49872e-16
 3800.000  4.24227e-16
 3801.000  2.96464e-16
 3802.000  2.69574e-16
 3803.000  2.61928e-16
 3804.000  2.55263e-16
 3805.000  2.47551e-16
 3806.000  2.53525e-16
 3807.000  2.63505e-16
 3808.000  2.38513e-16
 3809.000  2.34666e-16
 3810.000  2.28333e-16
 3811.000  2.31812e-16
 3812.000  2.34610e-16
 3813.000  2.69771e-16
 3814.000  2.61860e-16
 3815.000  2.53798e-16
 3816.000  2.64449e-16
 3817.000  2.44323e-16
 3818.000  2.47099e-16
 3819.000  3.33765e-16
 3820.000  3.94739e-16
 3821.000  2.97224e-16
 3822.000  2.44377e-16
 3823.000  2.45689e-16
 3824.000  3.20678e-16
 3825.000  3.16053e-16
 3826.000  3.23578e-16
 3827.000  3.13661e-16
 3828.000  3.42460e-16
 3829.000  4.13333e-16
 3830.000  3.47823e-16
 3831.000  3.78856e-16
 3832.000  5.38298e-16
 3833.000  6.10434e-16
 3834.000  9.84092e-16
 3835.000  1.33788e-15
 3836.000  1.01169e-15
 3837.000  6.49599e-16
 3838.000  5.46348e-16
 3839.000  3.86660e-16
 3840.000  3.41231e-16
 3841.000  3.13820e-16
 3842.000  2.68967e-16
 3843.000  2.58026e-16
 3844.000  2.52283e-16
 3845.000  2.54258e-16
 3846.000  2.47945e-16
 3847.000  2.42088e-16
 3848.000  2.43344e-16
 3849.000  2.51614e-16
 3850.000  2.62192e-16
 3851.000  2.44161e-16
 3852.000  2.47948e-16
 3853.000  2.38898e-16
 3854.000  2.42665e-16
 3855.000  2.49577e-16
 3856.000  3.18191e-16
 3857.000  2.54389e-16
 3858.000  2.64713e-16
 3859.000  3.01675e-16
 3860.000  3.22694e-16
 3861.000  2.62080e-16
 3862.000  2.55769e-16
 3863.000  2.48645e-16
 3864.000  2.40432e-16
 3865.000  2.63890e-16
 3866.000  2.54387e-16
 3867.000  2.57582e-16
 3868.000  2.44453e-16
 3869.000  2.47090e-16
 3870.000  2.48650e-16
 3871.000  2.59478e-16
 3872.000  3.01337e-16
 3873.000  2.78598e-16
 3874.000  2.50068e-16
 3875.000  2.40444e-16
 3876.000  2.47593e-16
 3877.000  2.61489e-16
 3878.000  3.27666e-16
 3879.000  2.77749e-16
 3880.000  2.64894e-16
 3881.000  2.78103e-16
 3882.000  2.91218e-16
 3883.000  3.04729e-16
 3884.000  3.35538e-16
 3885.000  3.98497e-16
 3886.000  5.55206e-16
 3887.000  8.79063e-16
 3888.000  1.39824e-15
 3889.000  1.37586e-15
 3890.000  9.90596e-16
 3891.000  5.81779e-16
 3892.000  3.76923e-16
 3893.000  3.04190e-16
 3894.000  3.19136e-16
 3895.000  3.05490e-16
 3896.000  2.97508e-16
 3897.000  2.77222e-16
 3898.000  2.79936e-16
 3899.000  2.90480e-16
 3900.000  3.34730e-16
 3901.000  2.96220e-16
 3902.000  2.55915e-16
 3903.000  2.64591e-16
 3904.000  2.66170e-16
 3905.000  4.49036e-16
 3906.000  3.16195e-16
 3907.000  2.56719e-16
 3908.000  2.50888e-16
 3909.000  2.45659e-16
 3910.000  2.47531e-16
 3911.000  2.46106e-16
 3912.000  2.54406e-16
 3913.000  3.01638e-16
 3914.000  2.93288e-16
 3915.000  2.61827e-16
 3916.000  2.54718e-16
 3917.000  2.56309e-16
 3918.000  2.55278e-16
 3919.000  2.61267e-16
 3920.000  2.83138e-16
 3921.000  2.58688e-16
 3922.000  2.58099e-16
 3923.000  2.74094e-16
 3924.000  2.49777e-16
 3925.000  2.53043e-16
 3926.000  2.62208e-16
 3927.000  2.64895e-16
 3928.000  2.86267e-16
 3929.000  2.78981e-16
 3930.000  3.88084e-16
 3931.000  6.74242e-16
 3932.000  1.98027e-15
 3933.000  3.51333e-15
 3934.000  2.78158e-15
 3935.000  1.64683e-15
 3936.000  5.48859e-16
 3937.000  2.67860e-16
 3938.000  2.77048e-16
 3939.000  2.63833e-16
 3940.000  2.50108e-16
 3941.000  2.55152e-16
 3942.000  2.55601e-16
 3943.000  2.59414e-16
 3944.000  2.81085e-16
 3945.000  2.68329e-16
 3946.000  2.52815e-16
 3947.000  2.62066e-16
 3948.000  2.53167e-16
 3949.000  2.52751e-16
 3950.000  2.56655e-16
 3951.000  2.56789e-16
 3952.000  2.61118e-16
 3953.000  2.65176e-16
 3954.000  2.54872e-16
 3955.000  2.57233e-16
 3956.000  2.67057e-16
 3957.000  2.59027e-16
 3958.000  2.63099e-16
 3959.000  2.60056e-16
 3960.000  2.65856e-16
 3961.000  3.18483e-16
 3962.000  2.95815e-16
 3963.000  3.10531e-16
 3964.000  3.62142e-16
 3965.000  4.35289e-16
 3966.000  8.61074e-16
 3967.000  2.19077e-15
 3968.000  3.35961e-15
 3969.000  2.09951e-15
 3970.000  1.52664e-15
 3971.000  1.12396e-15
 3972.000  6.42347e-16
 3973.000  4.19560e-16
 3974.000  3.30322e-16
 3975.000  3.30187e-16
 3976.000  3.13382e-16
 3977.000  2.99233e-16
 3978.000  2.80974e-16
 3979.000  2.74640e-16
 3980.000  2.69878e-16
 3981.000  2.61950e-16
 3982.000  2.54930e-16
 3983.000  2.63864e-16
 3984.000  2.60440e-16
 3985.000  2.51807e-16
 3986.000  2.63006e-16
 3987.000  2.63677e-16
 3988.000  2.55730e-16
 3989.000  2.44633e-16
 3990.000  2.53825e-16
 3991.000  2.53396e-16
 3992.000  2.55622e-16
 3993.000  2.52835e-16
 3994.000  2.54935e-16
 3995.000  2.62529e-16
 3996.000  2.54451e-16
 3997.000  2.71971e-16
 3998.000  2.56318e-16
 3999.000  2.52748e-16
 4000.000  2.61632e-16
 4001.000  2.58105e-16
 4002.000  2.61467e-16
 4003.000  2.60238e-16
 4004.000  2.60132e-16
 4005.000  2.84081e-16
 4006.000  2.67023e-16
 4007.000  2.65996e-16
 4008.000  2.63335e-16
 4009.000  2.79683e-16
 4010.000  2.75289e-16
 4011.000  2.67750e-16
 4012.000  2.89108e-16
 4013.000  2.69584e-16
 4014.000  2.71637e-16
 4015.000  2.67650e-16
 4016.000  2.65131e-16
 4017.000  2.70426e-16
 4018.000  2.66306e-16
 4019.000  2.67510e-16
 4020.000  2.63729e-16
 4021.000  2.70962e-16
 4022.000  2.73641e-16
 4023.000  2.77116e-16
 4024.000  2.95502e-16
 4025.000  3.68301e-16
 4026.000  5.10171e-16
 4027.000  3.35282e-16
 4028.000  2.99998e-16
 4029.000  2.80931e-16
 4030.000  2.84331e-16
 4031.000  2.75820e-16
 4032.000  2.77767e-16
 4033.000  2.83291e-16
 4034.000  2.88780e-16
 4035.000  2.69130e-16
 4036.000  2.69741e-16
 4037.000  2.69132e-16
 4038.000  2.71051e-16
 4039.000  2.70466e-16
 4040.000  2.68520e-16
 4041.000  2.61449e-16
 4042.000  2.67213e-16
 4043.000  2.65937e-16
 4044.000  2.63125e-16
 4045.000  2.89745e-16
 4046.000  2.94719e-16
 4047.000  2.62913e-16
 4048.000  2.63998e-16
 4049.000  2.70038e-16
 4050.000  2.73235e-16
 4051.000  2.71246e-16
 4052.000  2.79344e-16
 4053.000  2.79462e-16
 4054.000  2.67817e-16
 4055.000  2.73569e-16
 4056.000  2.76489e-16
 4057.000  2.77911e-16
 4058.000  2.80502e-16
 4059.000  2.73710e-16
 4060.000  2.66940e-16
 4061.000  2.72475e-16
 4062.000  2.95102e-16
 4063.000  3.88983e-16
 4064.000  3.53457e-16
 4065.000  2.90088e-16
 4066.000  2.82863e-16
 4067.000  2.91104e-16
 4068.000  3.93878e-16
 4069.000  3.11753e-16
 4070.000  2.96386e-16
 4071.000  2.84633e-16
 4072.000  2.82079e-16
 4073.000  2.79113e-16
 4074.000  2.82478e-16
 4075.000  2.79699e-16
 4076.000  3.16765e-16
 4077.000  3.23070e-16
 4078.000  3.22550e-16
 4079.000  2.78195e-16
 4080.000  2.78918e-16
 4081.000  2.73991e-16
 4082.000  2.75750e-16
 4083.000  2.80323e-16
 4084.000  2.82194e-16
 4085.000  2.90835e-16
 4086.000  2.94790e-16
 4087.000  2.96285e-16
 4088.000  2.97128e-16
 4089.000  2.95543e-16
 4090.000  2.92312e-16
 4091.000  3.06648e-16
 4092.000  3.05421e-16
 4093.000  3.23558e-16
 4094.000  3.33695e-16
 4095.000  3.47279e-16
 4096.000  3.74350e-16
 4097.000  4.33973e-16
 4098.000  5.36320e-16
 4099.000  8.60471e-16
 4100.000  1.53551e-15
 4101.000  1.98265e-15
 4102.000  1.68169e-15
 4103.000  1.21976e-15
 4104.000  7.43138e-16
 4105.000  4.55934e-16
 4106.000  3.67560e-16
 4107.000  3.81283e-16
 4108.000  3.51868e-16
 4109.000  3.31220e-16
 4110.000  3.27698e-16
 4111.000  3.06272e-16
 4112.000  3.00786e-16
 4113.000  2.97086e-16
 4114.000  2.97170e-16
 4115.000  2.87933e-16
 4116.000  2.85104e-16
 4117.000  2.96695e-16
 4118.000  2.98382e-16
 4119.000  3.01272e-16
 4120.000  3.05396e-16
 4121.000  3.17829e-16
 4122.000  3.16957e-16
 4123.000  2.94786e-16
 4124.000  3.04379e-16
 4125.000  3.00273e-16
 4126.000  3.00116e-16
 4127.000  3.02743e-16
 4128.000  3.12342e-16
 4129.000  2.97693e-16
 4130.000  2.91198e-16
 4131.000  3.01456e-16
 4132.000  3.38580e-16
 4133.000  3.05258e-16
 4134.000  2.96569e-16
 4135.000  2.98380e-16
 4136.000  2.90576e-16
 4137.000  2.88866e-16
 4138.000  2.96293e-16
 4139.000  2.90318e-16
 4140.000  2.94694e-16
 4141.000  3.00979e-16
 4142.000  2.83798e-16
 4143.000  3.11800e-16
 4144.000  3.11049e-16
 4145.000  2.98422e-16
 4146.000  2.91711e-16
 4147.000  2.91324e-16
 4148.000  2.86192e-16
 4149.000  2.99356e-16
 4150.000  2.93249e-16
 4151.000  2.98996e-16
 4152.000  2.95959e-16
 4153.000  3.00278e-16
 4154.000  3.11987e-16
 4155.000  3.01266e-16
 4156.000  3.04037e-16
 4157.000  3.00301e-16
 4158.000  2.96065e-16
 4159.000  2.95022e-16
 4160.000  3.02359e-16
 4161.000  3.07544e-16
 4162.000  3.08627e-16
 4163.000  3.21767e-16
 4164.000  2.99178e-16
 4165.000  2.85419e-16
 4166.000  2.98396e-16
 4167.000  3.05001e-16
 4168.000  2.99218e-16
 4169.000  3.00029e-16
 4170.000  3.03171e-16
 4171.000  3.08506e-16
 4172.000  3.18984e-16
 4173.000  3.86103e-16
 4174.000  3.37458e-16
 4175.000  3.06017e-16
 4176.000  3.06793e-16
 4177.000  3.27646e-16
 4178.000  3.60809e-16
 4179.000  3.77138e-16
 4180.000  3.20517e-16
 4181.000  3.04630e-16
 4182.000  3.12673e-16
 4183.000  3.08123e-16
 4184.000  3.08569e-16
 4185.000  3.02999e-16
 4186.000  3.05800e-16
 4187.000  3.06459e-16
 4188.000  3.10322e-16
 4189.000  3.03673e-16
 4190.000  3.09721e-16
 4191.000  3.11726e-16
 4192.000  3.05886e-16
 4193.000  3.02212e-16
 4194.000  3.09343e-16
 4195.000  3.04586e-16
 4196.000  3.03034e-16
 4197.000  2.93372e-16
 4198.000  3.01315e-16
 4199.000  2.97019e-16
 4200.000  2.99495e-16
 4201.000  3.05629e-16
 4202.000  3.26048e-16
 4203.000  3.12287e-16
 4204.000  3.01062e-16
 4205.000  3.09503e-16
 4206.000  3.14773e-16
 4207.000  3.14259e-16
 4208.000  3.09985e-16
 4209.000  3.11812e-16
 4210.000  3.09041e-16
 4211.000  3.08486e-16
 4212.000  3.14176e-16
 4213.000  2.98529e-16
 4214.000  3.18927e-16
 4215.000  3.48954e-16
 4216.000  3.48231e-16
 4217.000  3.16423e-16
 4218.000  2.89451e-16
 4219.000  2.98409e-16
 4220.000  2.88952e-16
 4221.000  2.87702e-16
 4222.000  2.89113e-16
 4223.000  2.78227e-16
 4224.000  2.97281e-16
 4225.000  2.95889e-16
 4226.000  3.51861e-16
 4227.000  3.35866e-16
 4228.000  2.88017e-16
 4229.000  2.77976e-16
 4230.000  2.84443e-16
 4231.000  2.98329e-16
 4232.000  3.87131e-16
 4233.000  5.58877e-16
 4234.000  3.88253e-16
 4235.000  3.04123e-16
 4236.000  3.05361e-16
 4237.000  3.02791e-16
 4238.000  3.09012e-16
 4239.000  3.08883e-16
 4240.000  3.07108e-16
 4241.000  3.00884e-16
 4242.000  3.18351e-16
 4243.000  3.17948e-16
 4244.000  3.29589e-16
 4245.000  3.15541e-16
 4246.000  3.15918e-16
 4247.000  3.24608e-16
 4248.000  3.15602e-16
 4249.000  3.07355e-16
 4250.000  3.14779e-16
 4251.000  3.15668e-16
 4252.000  3.00335e-16
 4253.000  3.04223e-16
 4254.000  3.24275e-16
 4255.000  3.11186e-16
 4256.000  3.05853e-16
 4257.000  3.05994e-16
 4258.000  3.30080e-16
 4259.000  3.05505e-16
 4260.000  3.26374e-16
 4261.000  3.16431e-16
 4262.000  3.08112e-16
 4263.000  3.17968e-16
 4264.000  3.15580e-16
 4265.000  3.16196e-16
 4266.000  3.19467e-16
 4267.000  3.28230e-16
 4268.000  3.07836e-16
 4269.000  3.22367e-16
 4270.000  3.16986e-16
 4271.000  3.56089e-16
 4272.000  3.52480e-16
 4273.000  3.33214e-16
 4274.000  3.15256e-16
 4275.000  3.23661e-16
 4276.000  3.18168e-16
 4277.000  3.09923e-16
 4278.000  3.25765e-16
 4279.000  3.31249e-16
 4280.000  3.11456e-16
 4281.000  3.15633e-16
 4282.000  3.33376e-16
 4283.000  3.18123e-16
 4284.000  3.26800e-16
 4285.000  3.30135e-16
 4286.000  3.25136e-16
 4287.000  3.19238e-16
 4288.000  3.22069e-16
 4289.000  3.26254e-16
 4290.000  3.66600e-16
 4291.000  3.36588e-16
 4292.000  3.29232e-16
 4293.000  3.44826e-16
 4294.000  3.64199e-16
 4295.000  3.42300e-16
 4296.000  3.55675e-16
 4297.000  3.55554e-16
 4298.000  3.33623e-16
 4299.000  3.49647e-16
 4300.000  3.76953e-16
 4301.000  3.59069e-16
 4302.000  3.52708e-16
 4303.000  4.06448e-16
 4304.000  3.50808e-16
 4305.000  3.31653e-16
 4306.000  3.30044e-16
 4307.000  3.68102e-16
 4308.000  3.86280e-16
 4309.000  3.47873e-16
 4310.000  3.29683e-16
 4311.000  3.46463e-16
 4312.000  3.57932e-16
 4313.000  3.82171e-16
 4314.000  3.61447e-16
 4315.000  3.65671e-16
 4316.000  3.54837e-16
 4317.000  3.47457e-16
 4318.000  3.31212e-16
 4319.000  3.53750e-16
 4320.000  3.53437e-16
 4321.000  3.51649e-16
 4322.000  3.48186e-16
 4323.000  3.44245e-16
 4324.000  3.58953e-16
 4325.000  3.79266e-16
 4326.000  3.81722e-16
 4327.000  3.67075e-16
 4328.000  3.71936e-16
 4329.000  3.73717e-16
 4330.000  3.84539e-16
 4331.000  3.99707e-16
 4332.000  4.09645e-16
 4333.000  4.49967e-16
 4334.000  4.74825e-16
 4335.000  5.24442e-16
 4336.000  6.31723e-16
 4337.000  8.61900e-16
 4338.000  1.55949e-15
 4339.000  2.62491e-15
 4340.000  2.97440e-15
 4341.000  2.29887e-15
 4342.000  1.66207e-15
 4343.000  9.51257e-16
 4344.000  5.64550e-16
 4345.000  4.64369e-16
 4346.000  4.66827e-16
 4347.000  4.46498e-16
 4348.000  4.35643e-16
 4349.000  4.22447e-16
 4350.000  4.27011e-16
 4351.000  4.87665e-16
 4352.000  4.98382e-16
 4353.000  3.94550e-16
 4354.000  3.73808e-16
 4355.000  3.65852e-16
 4356.000  3.57690e-16
 4357.000  3.79854e-16
 4358.000  3.68671e-16
 4359.000  3.75644e-16
 4360.000  3.66291e-16
 4361.000  3.63820e-16
 4362.000  3.60224e-16
 4363.000  3.55451e-16
 4364.000  3.65262e-16
 4365.000  3.63272e-16
 4366.000  3.69774e-16
 4367.000  3.73812e-16
 4368.000  3.74677e-16
 4369.000  3.79904e-16
 4370.000  3.77723e-16
 4371.000  3.70639e-16
 4372.000  3.63101e-16
 4373.000  3.58749e-16
 4374.000  3.75540e-16
 4375.000  3.72186e-16
 4376.000  3.83126e-16
 4377.000  3.65842e-16
 4378.000  3.58451e-16
 4379.000  3.31344e-16
 4380.000  3.52317e-16
 4381.000  3.45933e-16
 4382.000  3.61466e-16
 4383.000  4.36337e-16
 4384.000  4.10012e-16
 4385.000  4.34899e-16
 4386.000  4.02054e-16
 4387.000  3.99778e-16
 4388.000  4.12955e-16
 4389.000  3.68336e-16
 4390.000  3.52318e-16
 4391.000  3.68230e-16
 4392.000  3.72877e-16
 4393.000  3.70484e-16
 4394.000  4.05423e-16
 4395.000  4.10721e-16
 4396.000  3.92787e-16
 4397.000  3.73365e-16
 4398.000  3.74591e-16
 4399.000  3.84526e-16
 4400.000  3.79262e-16
 4401.000  3.69547e-16
 4402.000  3.72758e-16
 4403.000  3.56371e-16
 4404.000  3.85192e-16
 4405.000  3.82422e-16
 4406.000  3.59819e-16
 4407.000  3.64306e-16
 4408.000  3.51176e-16
 4409.000  3.78363e-16
 4410.000  3.82071e-16
 4411.000  3.93130e-16
 4412.000  3.68298e-16
 4413.000  3.98873e-16
 4414.000  3.78935e-16
 4415.000  4.15102e-16
 4416.000  4.20665e-16
 4417.000  4.39477e-16
 4418.000  4.13662e-16
 4419.000  3.87190e-16
 4420.000  3.89694e-16
 4421.000  3.74109e-16
 4422.000  3.77337e-16
 4423.000  3.74811e-16
 4424.000  3.75335e-16
 4425.000  3.46262e-16
 4426.000  3.83407e-16
 4427.000  4.02366e-16
 4428.000  3.91283e-16
 4429.000  3.91857e-16
 4430.000  3.63861e-16
 4431.000  3.91140e-16
 4432.000  3.98347e-16
 4433.000  3.80442e-16
 4434.000  3.58523e-16
 4435.000  3.47689e-16
 4436.000  3.64970e-16
 4437.000  3.93017e-16
 4438.000  3.93164e-16
 4439.000  4.06644e-16
 4440.000  3.93248e-16
 4441.000  3.75920e-16
 4442.000  4.10881e-16
 4443.000  4.19648e-16
 4444.000  4.10766e-16
 4445.000  4.11196e-16
 4446.000  4.01807e-16
 4447.000  3.93957e-16
 4448.000  4.16545e-16
 4449.000  3.88442e-16
 4450.000  4.06945e-16
 4451.000  4.04759e-16
 4452.000  4.00717e-16
 4453.000  3.72980e-16
 4454.000  3.63301e-16
 4455.000  3.52751e-16
 4456.000  3.71569e-16
 4457.000  3.72439e-16
 4458.000  3.90611e-16
 4459.000  3.94174e-16
 4460.000  3.80553e-16
 4461.000  4.04138e-16
 4462.000  3.91418e-16
 4463.000  3.91087e-16
 4464.000  4.13137e-16
 4465.000  3.98821e-16
 4466.000  4.09501e-16
 4467.000  4.23381e-16
 4468.000  4.77254e-16
 4469.000  4.73773e-16
 4470.000  5.58041e-16
 4471.000  9.69734e-16
 4472.000  6.62828e-16
 4473.000  4.94712e-16
 4474.000  4.24243e-16
 4475.000  4.06697e-16
 4476.000  4.07213e-16
 4477.000  4.26459e-16
 4478.000  4.13629e-16
 4479.000  4.11343e-16
 4480.000  4.01750e-16
 4481.000  4.71467e-16
 4482.000  4.11556e-16
 4483.000  4.23502e-16
 4484.000  4.09966e-16
 4485.000  4.14382e-16
 4486.000  4.24891e-16
 4487.000  4.19615e-16
 4488.000  4.32183e-16
 4489.000  4.44452e-16
 4490.000  4.32779e-16
 4491.000  4.75210e-16
 4492.000  4.28453e-16
 4493.000  4.32852e-16
 4494.000  4.06279e-16
 4495.000  4.12872e-16
 4496.000  3.90722e-16
 4497.000  4.07134e-16
 4498.000  4.28502e-16
 4499.000  4.30932e-16
 4500.000  4.31672e-16
 4501.000  4.42711e-16
 4502.000  4.33831e-16
 4503.000  4.28524e-16
 4504.000  4.33612e-16
 4505.000  4.36977e-16
 4506.000  4.15947e-16
 4507.000  4.40115e-16
 4508.000  5.17942e-16
 4509.000  4.43632e-16
 4510.000  4.42419e-16
 4511.000  4.26007e-16
 4512.000  3.92664e-16
 4513.000  4.26545e-16
 4514.000  4.43745e-16
 4515.000  5.08898e-16
 4516.000  4.67465e-16
 4517.000  4.28450e-16
 4518.000  4.04613e-16
 4519.000  4.58565e-16
 4520.000  5.08292e-16
 4521.000  4.88008e-16
 4522.000  5.40507e-16
 4523.000  5.01881e-16
 4524.000  4.48357e-16
 4525.000  4.30717e-16
 4526.000  4.03614e-16
 4527.000  3.84255e-16
 4528.000  4.27605e-16
 4529.000  4.30887e-16
 4530.000  4.25715e-16
 4531.000  4.19646e-16
 4532.000  4.29653e-16
 4533.000  4.10344e-16
 4534.000  4.58870e-16
 4535.000  3.84083e-16
 4536.000  4.05103e-16
 4537.000  4.42922e-16
 4538.000  4.40273e-16
 4539.000  4.33705e-16
 4540.000  4.14103e-16
 4541.000  4.64983e-16
 4542.000  4.42220e-16
 4543.000  4.49869e-16
 4544.000  4.15110e-16
 4545.000  4.18891e-16
 4546.000  4.39640e-16
 4547.000  4.42650e-16
 4548.000  4.78765e-16
 4549.000  6.76118e-16
 4550.000  5.97075e-16
 4551.000  4.86134e-16
 4552.000  4.08290e-16
 4553.000  4.43061e-16
 4554.000  4.42993e-16
 4555.000  4.80552e-16
 4556.000  5.39861e-16
 4557.000  4.82521e-16
 4558.000  4.93004e-16
 4559.000  4.90112e-16
 4560.000  4.61671e-16
 4561.000  4.66486e-16
 4562.000  4.51244e-16
 4563.000  4.64279e-16
 4564.000  4.88155e-16
 4565.000  4.48399e-16
 4566.000  4.68891e-16
 4567.000  4.82032e-16
 4568.000  4.72151e-16
 4569.000  4.67442e-16
 4570.000  5.25524e-16
 4571.000  5.85873e-16
 4572.000  5.42674e-16
 4573.000  5.09493e-16
 4574.000  4.64024e-16
 4575.000  4.52834e-16
 4576.000  5.04556e-16
 4577.000  4.74633e-16
 4578.000  4.32264e-16
 4579.000  4.69793e-16
 4580.000  4.41866e-16
 4581.000  4.30945e-16
 4582.000  5.38206e-16
 4583.000  6.86239e-16
 4584.000  6.82403e-16
 4585.000  5.17904e-16
 4586.000  4.30504e-16
 4587.000  4.79681e-16
 4588.000  5.11702e-16
 4589.000  4.91811e-16
 4590.000  4.81459e-16
 4591.000  4.49858e-16
 4592.000  4.63932e-16
 4593.000  4.72499e-16
 4594.000  4.53966e-16
 4595.000  4.58715e-16
 4596.000  4.78995e-16
 4597.000  4.74390e-16
 4598.000  4.57724e-16
 4599.000  4.84675e-16
 4600.000  4.45326e-16
 4601.000  4.79306e-16
 4602.000  4.77319e-16
 4603.000  4.80737e-16
 4604.000  4.75373e-16
 4605.000  4.79805e-16
 4606.000  4.63757e-16
 4607.000  4.22739e-16
 4608.000  5.03618e-16
 4609.000  4.96831e-16
 4610.000  5.02949e-16
 4611.000  4.73901e-16
 4612.000  4.83674e-16
 4613.000  4.54084e-16
 4614.000  4.83016e-16
 4615.000  5.01255e-16
 4616.000  4.85427e-16
 4617.000  4.75629e-16
 4618.000  5.08491e-16
 4619.000  4.71706e-16
 4620.000  5.30214e-16
 4621.000  5.06340e-16
 4622.000  4.82540e-16
 4623.000  4.79041e-16
 4624.000  4.81550e-16
 4625.000  4.84433e-16
 4626.000  4.39480e-16
 4627.000  4.89684e-16
 4628.000  5.29896e-16
 4629.000  6.16590e-16
 4630.000  5.54039e-16
 4631.000  5.18756e-16
 4632.000  4.89119e-16
 4633.000  4.83724e-16
 4634.000  5.08116e-16
 4635.000  4.84903e-16
 4636.000  5.01550e-16
 4637.000  4.64614e-16
 4638.000  4.90767e-16
 4639.000  4.33899e-16
 4640.000  4.59115e-16
 4641.000  4.87577e-16
 4642.000  4.96673e-16
 4643.000  4.62725e-16
 4644.000  4.94592e-16
 4645.000  4.71555e-16
 4646.000  4.28388e-16
 4647.000  4.92700e-16
 4648.000  4.84587e-16
 4649.000  4.86508e-16
 4650.000  4.94788e-16
 4651.000  4.61870e-16
 4652.000  4.67493e-16
 4653.000  4.92096e-16
 4654.000  4.67065e-16
 4655.000  4.99890e-16
 4656.000  4.60250e-16
 4657.000  5.12128e-16
 4658.000  5.09981e-16
 4659.000  5.10680e-16
 4660.000  5.23250e-16
 4661.000  5.07373e-16
 4662.000  5.04160e-16
 4663.000  4.80702e-16
 4664.000  5.02345e-16
 4665.000  5.15730e-16
 4666.000  4.91604e-16
 4667.000  4.62249e-16
 4668.000  4.56794e-16
 4669.000  4.79737e-16
 4670.000  4.90574e-16
 4671.000  5.00979e-16
 4672.000  4.96706e-16
 4673.000  4.87264e-16
 4674.000  4.77308e-16
 4675.000  4.82277e-16
 4676.000  5.04909e-16
 4677.000  5.09277e-16
 4678.000  5.00818e-16
 4679.000  4.96536e-16
 4680.000  4.73740e-16
 4681.000  4.76387e-16
 4682.000  4.70948e-16
 4683.000  4.98380e-16
 4684.000  5.14252e-16
 4685.000  6.45973e-16
 4686.000  6.28534e-16
 4687.000  5.04220e-16
 4688.000  5.01197e-16
 4689.000  4.98803e-16
 4690.000  5.06189e-16
 4691.000  4.82709e-16
 4692.000  4.97854e-16
 4693.000  4.86733e-16
 4694.000  5.18080e-16
 4695.000  5.09142e-16
 4696.000  5.18384e-16
 4697.000  5.10856e-16
 4698.000  4.64594e-16
 4699.000  5.05379e-16
 4700.000  4.88604e-16
 4701.000  5.05263e-16
 4702.000  5.06537e-16
 4703.000  5.08817e-16
 4704.000  5.09757e-16
 4705.000  5.06485e-16
 4706.000  4.93890e-16
 4707.000  4.76060e-16
 4708.000  5.15185e-16
 4709.000  4.98355e-16
 4710.000  4.97516e-16
 4711.000  5.27609e-16
 4712.000  5.41650e-16
 4713.000  6.13773e-16
 4714.000  5.04578e-16
 4715.000  4.88008e-16
 4716.000  5.11512e-16
 4717.000  5.01518e-16
 4718.000  4.93409e-16
 4719.000  5.11711e-16
 4720.000  5.15821e-16
 4721.000  5.21755e-16
 4722.000  4.89800e-16
 4723.000  5.02316e-16
 4724.000  4.96772e-16
 4725.000  5.31607e-16
 4726.000  5.06148e-16
 4727.000  4.82863e-16
 4728.000  4.88643e-16
 4729.000  4.97091e-16
 4730.000  5.13719e-16
 4731.000  5.24782e-16
 4732.000  5.24356e-16
 4733.000  4.93843e-16
 4734.000  4.96818e-16
 4735.000  5.30144e-16
 4736.000  4.98118e-16
 4737.000  4.82710e-16
 4738.000  5.16519e-16
 4739.000  5.01262e-16
 4740.000  5.00390e-16
 4741.000  4.94091e-16
 4742.000  5.00790e-16
 4743.000  5.10737e-16
 4744.000  5.19954e-16
 4745.000  4.94684e-16
 4746.000  5.23705e-16
 4747.000  5.00765e-16
 4748.000  5.10347e-16
 4749.000  5.16166e-16
 4750.000  5.09356e-16
 4751.000  5.16728e-16
 4752.000  5.12988e-16
 4753.000  4.93527e-16
 4754.000  5.01722e-16
 4755.000  5.31915e-16
 4756.000  4.98964e-16
 4757.000  5.04530e-16
 4758.000  4.99159e-16
 4759.000  4.89061e-16
 4760.000  5.00657e-16
 4761.000  4.88257e-16
 4762.000  4.80515e-16
 4763.000  4.88961e-16
 4764.000  4.85305e-16
 4765.000  4.88734e-16
 4766.000  4.61908e-16
 4767.000  4.97157e-16
 4768.000  4.80134e-16
 4769.000  4.79738e-16
 4770.000  4.88371e-16
 4771.000  4.87287e-16
 4772.000  4.83735e-16
 4773.000  4.79636e-16
 4774.000  4.89612e-16
 4775.000  4.91384e-16
 4776.000  4.77971e-16
 4777.000  4.85091e-16
 4778.000  4.74408e-16
 4779.000  4.73015e-16
 4780.000  4.75262e-16
 4781.000  4.70471e-16
 4782.000  4.85265e-16
 4783.000  4.69010e-16
 4784.000  4.81546e-16
 4785.000  4.91368e-16
 4786.000  4.85645e-16
 4787.000  4.93852e-16
 4788.000  4.91056e-16
 4789.000  4.87419e-16
 4790.000  4.99491e-16
 4791.000  4.90518e-16
 4792.000  4.99822e-16
 4793.000  5.16570e-16
 4794.000  5.03777e-16
 4795.000  5.15372e-16
 4796.000  5.12601e-16
 4797.000  5.19305e-16
 4798.000  5.08202e-16
 4799.000  5.03215e-16
 4800.000  5.17600e-16
 4801.000  5.13875e-16
 4802.000  5.25783e-16
 4803.000  5.29180e-16
 4804.000  5.24604e-16
 4805.000  5.16527e-16
 4806.000  5.22911e-16
 4807.000  4.96846e-16
 4808.000  5.04843e-16
 4809.000  5.16209e-16
 4810.000  5.09075e-16
 4811.000  5.11191e-16
 4812.000  5.09614e-16
 4813.000  5.21042e-16
 4814.000  5.32661e-16
 4815.000  5.10478e-16
 4816.000  5.17274e-16
 4817.000  5.22059e-16
 4818.000  5.28834e-16
 4819.000  5.05759e-16
 4820.000  5.01013e-16
 4821.000  5.22369e-16
 4822.000  5.15577e-16
 4823.000  4.91343e-16
 4824.000  5.34960e-16
 4825.000  5.26899e-16
 4826.000  5.20820e-16
 4827.000  4.84884e-16
 4828.000  5.17085e-16
 4829.000  5.06861e-16
 4830.000  5.28139e-16
 4831.000  4.99153e-16
 4832.000  4.87085e-16
 4833.000  5.33489e-16
 4834.000  5.34597e-16
 4835.000  5.35940e-16
 4836.000  5.16512e-16
 4837.000  5.26355e-16
 4838.000  5.31624e-16
 4839.000  5.41652e-16
 4840.000  5.33157e-16
 4841.000  5.43413e-16
 4842.000  5.26482e-16
 4843.000  5.29622e-16
 4844.000  5.42910e-16
 4845.000  5.63464e-16
 4846.000  5.79077e-16
 4847.000  5.58069e-16
 4848.000  5.74974e-16
 4849.000  6.09324e-16
 4850.000  6.17283e-16
 4851.000  5.87073e-16
 4852.000  6.25999e-16
 4853.000  6.58190e-16
 4854.000  6.96843e-16
 4855.000  7.54681e-16
 4856.000  9.35426e-16
 4857.000  1.29789e-15
 4858.000  2.37577e-15
 4859.000  4.80639e-15
 4860.000  6.49222e-15
 4861.000  6.57955e-15
 4862.000  5.00628e-15
 4863.000  3.78694e-15
 4864.000  2.38602e-15
 4865.000  1.19946e-15
 4866.000  7.55939e-16
 4867.000  7.14253e-16
 4868.000  6.77256e-16
 4869.000  6.73170e-16
 4870.000  6.26609e-16
 4871.000  6.04661e-16
 4872.000  6.09859e-16
 4873.000  6.02277e-16
 4874.000  5.96266e-16
 4875.000  5.52233e-16
 4876.000  5.93143e-16
 4877.000  5.70540e-16
 4878.000  5.47118e-16
 4879.000  5.88761e-16
 4880.000  5.55702e-16
 4881.000  5.27427e-16
 4882.000  5.53666e-16
 4883.000  5.59231e-16
 4884.000  5.80914e-16
 4885.000  5.44747e-16
 4886.000  5.48594e-16
 4887.000  5.45371e-16
 4888.000  5.46321e-16
 4889.000  5.66165e-16
 4890.000  5.43935e-16
 4891.000  5.29863e-16
 4892.000  5.64914e-16
 4893.000  5.56860e-16
 4894.000  5.66958e-16
 4895.000  5.73021e-16
 4896.000  5.75048e-16
 4897.000  5.75966e-16
 4898.000  5.62883e-16
 4899.000  5.57582e-16
 4900.000  5.61758e-16
 4901.000  5.83595e-16
 4902.000  5.68260e-16
 4903.000  5.63216e-16
 4904.000  5.62471e-16
 4905.000  5.94128e-16
 4906.000  5.75722e-16
 4907.000  5.84672e-16
 4908.000  5.86258e-16
 4909.000  5.73395e-16
 4910.000  5.66217e-16
 4911.000  5.88555e-16
 4912.000  5.94415e-16
 4913.000  5.49854e-16
 4914.000  5.87718e-16
 4915.000  5.67096e-16
 4916.000  5.93806e-16
 4917.000  5.79868e-16
 4918.000  5.67111e-16
 4919.000  5.68128e-16
 4920.000  5.86518e-16
 4921.000  7.18784e-16
 4922.000  8.80479e-16
 4923.000  1.06089e-15
 4924.000  1.09617e-15
 4925.000  7.49188e-16
 4926.000  6.37974e-16
 4927.000  6.03441e-16
 4928.000  6.15022e-16
 4929.000  6.09220e-16
 4930.000  5.90033e-16
 4931.000  6.24790e-16
 4932.000  5.87246e-16
 4933.000  5.89338e-16
 4934.000  5.80591e-16
 4935.000  6.24158e-16
 4936.000  5.86724e-16
 4937.000  5.77914e-16
 4938.000  5.66955e-16
 4939.000  5.86834e-16
 4940.000  6.13423e-16
 4941.000  5.84398e-16
 4942.000  5.80616e-16
 4943.000  6.26561e-16
 4944.000  6.16680e-16
 4945.000  5.85067e-16
 4946.000  5.94419e-16
 4947.000  6.35440e-16
 4948.000  6.07172e-16
 4949.000  6.32548e-16
 4950.000  6.07505e-16
 4951.000  6.28746e-16
 4952.000  6.25555e-16
 4953.000  6.18467e-16
 4954.000  5.77021e-16
 4955.000  5.60088e-16
 4956.000  5.71383e-16
 4957.000  5.64153e-16
 4958.000  5.61866e-16
 4959.000  5.73960e-16
 4960.000  5.90259e-16
 4961.000  5.77021e-16
 4962.000  5.67331e-16
 4963.000  5.70703e-16
 4964.000  5.52201e-16
 4965.000  5.91022e-16
 4966.000  5.88435e-16
 4967.000  5.60284e-16
 4968.000  5.65328e-16
 4969.000  5.91700e-16
 4970.000  5.96828e-16
 4971.000  5.89666e-16
 4972.000  6.17441e-16
 4973.000  6.06697e-16
 4974.000  6.03757e-16
 4975.000  5.91947e-16
 4976.000  5.92368e-16
 4977.000  6.11505e-16
 4978.000  5.54540e-16
 4979.000  6.02403e-16
 4980.000  6.01499e-16
 4981.000  5.34705e-16
 4982.000  5.46617e-16
 4983.000  5.85346e-16
 4984.000  6.05458e-16
 4985.000  5.89442e-16
 4986.000  5.81593e-16
 4987.000  6.03942e-16
 4988.000  5.94585e-16
 4989.000  5.80215e-16
 4990.000  5.88410e-16
 4991.000  5.70020e-16
 4992.000  6.29048e-16
 4993.000  5.98632e-16
 4994.000  5.99479e-16
 4995.000  6.00971e-16
 4996.000  6.04639e-16
 4997.000  6.03428e-16
 4998.000  6.18977e-16
 4999.000  5.31302e-16
 5000.000  5.75723e-16
 5001.000  5.92690e-16
 5002.000  6.03397e-16
 5003.000  5.99332e-16
 5004.000  6.06240e-16
 5005.000  5.95761e-16
 5006.000  5.84828e-16
 5007.000  5.64134e-16
 5008.000  5.75708e-16
 5009.000  5.88030e-16
 5010.000  6.09963e-16
 5011.000  6.18577e-16
 5012.000  5.99237e-16
 5013.000  6.05764e-16
 5014.000  5.92306e-16
 5015.000  8.72974e-16
 5016.000  7.80995e-16
 5017.000  8.99868e-16
 5018.000  1.43227e-15
 5019.000  1.06555e-15
 5020.000  7.45841e-16
 5021.000  6.05901e-16
 5022.000  5.54219e-16
 5023.000  5.80401e-16
 5024.000  6.14374e-16
 5025.000  5.88412e-16
 5026.000  6.20031e-16
 5027.000  5.76707e-16
 5028.000  5.88732e-16
 5029.000  5.95156e-16
 5030.000  6.28600e-16
 5031.000  6.22961e-16
 5032.000  6.08874e-16
 5033.000  6.10844e-16
 5034.000  6.13123e-16
 5035.000  5.88170e-16
 5036.000  5.74261e-16
 5037.000  6.22610e-16
 5038.000  6.02065e-16
 5039.000  5.90544e-16
 5040.000  5.86234e-16
 5041.000  6.13137e-16
 5042.000  6.50286e-16
 5043.000  5.70512e-16
 5044.000  6.18899e-16
 5045.000  5.97826e-16
 5046.000  6.36680e-16
 5047.000  6.42633e-16
 5048.000  6.13812e-16
 5049.000  5.99567e-16
 5050.000  5.83059e-16
 5051.000  6.35692e-16
 5052.000  6.64518e-16
 5053.000  6.05217e-16
 5054.000  5.88407e-16
 5055.000  6.11895e-16
 5056.000  6.04006e-16
 5057.000  6.46843e-16
 5058.000  6.25873e-16
 5059.000  6.02155e-16
 5060.000  6.39269e-16
 5061.000  6.04779e-16
 5062.000  6.26616e-16
 5063.000  5.95564e-16
 5064.000  5.78122e-16
 5065.000  5.87194e-16
 5066.000  6.30439e-16
 5067.000  5.92432e-16
 5068.000  5.95187e-16
 5069.000  5.90883e-16
 5070.000  6.25724e-16
 5071.000  5.77580e-16
 5072.000  5.89367e-16
 5073.000  6.05701e-16
 5074.000  6.55264e-16
 5075.000  6.14059e-16
 5076.000  5.79030e-16
 5077.000  6.07938e-16
 5078.000  6.51734e-16
 5079.000  6.04133e-16
 5080.000  6.11256e-16
 5081.000  5.87298e-16
 5082.000  5.78445e-16
 5083.000  6.14256e-16
 5084.000  6.17606e-16
 5085.000  5.88531e-16
 5086.000  6.36109e-16
 5087.000  6.25816e-16
 5088.000  5.83089e-16
 5089.000  6.25006e-16
 5090.000  5.93062e-16
 5091.000  6.12573e-16
 5092.000  6.07777e-16
 5093.000  6.52159e-16
 5094.000  6.09665e-16
 5095.000  5.82425e-16
 5096.000  6.03603e-16
 5097.000  6.85203e-16
 5098.000  6.29695e-16
 5099.000  5.88900e-16
 5100.000  6.03149e-16
 5101.000  5.84442e-16
 5102.000  5.99336e-16
 5103.000  6.10739e-16
 5104.000  5.84388e-16
 5105.000  6.06712e-16
 5106.000  5.96234e-16
 5107.000  6.39687e-16
 5108.000  6.23936e-16
 5109.000  6.19747e-16
 5110.000  6.62567e-16
 5111.000  6.04849e-16
 5112.000  6.19818e-16
 5113.000  5.98872e-16
 5114.000  6.30186e-16
 5115.000  6.79338e-16
 5116.000  5.75597e-16
 5117.000  6.71672e-16
 5118.000  5.93678e-16
 5119.000  6.46484e-16
 5120.000  5.94264e-16
 5121.000  6.15913e-16
 5122.000  6.47719e-16
 5123.000  5.96082e-16
 5124.000  6.02597e-16
 5125.000  6.03898e-16
 5126.000  6.37259e-16
 5127.000  6.06907e-16
 5128.000  6.25321e-16
 5129.000  5.97708e-16
 5130.000  5.89595e-16
 5131.000  6.44525e-16
 5132.000  6.63359e-16
 5133.000  6.31038e-16
 5134.000  6.09319e-16
 5135.000  6.67993e-16
 5136.000  6.20995e-16
 5137.000  6.85193e-16
 5138.000  6.03668e-16
 5139.000  6.12660e-16
 5140.000  6.57249e-16
 5141.000  6.47236e-16
 5142.000  6.29301e-16
 5143.000  6.40525e-16
 5144.000  6.41964e-16
 5145.000  6.05440e-16
 5146.000  6.01030e-16
 5147.000  6.19410e-16
 5148.000  6.34331e-16
 5149.000  6.02984e-16
 5150.000  6.43179e-16
 5151.000  6.37175e-16
 5152.000  6.00475e-16
 5153.000  5.67991e-16
 5154.000  5.88061e-16
 5155.000  6.63542e-16
 5156.000  6.16862e-16
 5157.000  6.80271e-16
 5158.000  6.70150e-16
 5159.000  6.46490e-16
 5160.000  6.88628e-16
 5161.000  6.99037e-16
 5162.000  6.27528e-16
 5163.000  6.47818e-16
 5164.000  7.07044e-16
 5165.000  6.43650e-16
 5166.000  7.48101e-16
 5167.000  1.06304e-15
 5168.000  1.34786e-15
 5169.000  1.54019e-15
 5170.000  1.05816e-15
 5171.000  8.08112e-16
 5172.000  9.17127e-16
 5173.000  7.60188e-16
 5174.000  6.34839e-16
 5175.000  5.91902e-16
 5176.000  6.33600e-16
 5177.000  6.04026e-16
 5178.000  5.94069e-16
 5179.000  5.93191e-16
 5180.000  5.93984e-16
 5181.000  5.99079e-16
 5182.000  7.00660e-16
 5183.000  9.64191e-16
 5184.000  8.13008e-16
 5185.000  6.97076e-16
 5186.000  6.45064e-16
 5187.000  6.50523e-16
 5188.000  6.62586e-16
 5189.000  6.79164e-16
 5190.000  6.73341e-16
 5191.000  6.77722e-16
 5192.000  6.44867e-16
 5193.000  6.43618e-16
 5194.000  6.81519e-16
 5195.000  6.84592e-16
 5196.000  6.93042e-16
 5197.000  8.22792e-16
 5198.000  7.40545e-16
 5199.000  7.20895e-16
 5200.000  6.53222e-16
 5201.000  6.59860e-16
 5202.000  6.62607e-16
 5203.000  6.49478e-16
 5204.000  6.29265e-16
 5205.000  6.21362e-16
 5206.000  6.21503e-16
 5207.000  6.18149e-16
 5208.000  6.30918e-16
 5209.000  6.22695e-16
 5210.000  5.99634e-16
 5211.000  6.95572e-16
 5212.000  7.08004e-16
 5213.000  7.14504e-16
 5214.000  7.07679e-16
 5215.000  7.21280e-16
 5216.000  7.10322e-16
 5217.000  7.15587e-16
 5218.000  7.50883e-16
 5219.000  7.06273e-16
 5220.000  7.61369e-16
 5221.000  7.49534e-16
 5222.000  7.22378e-16
 5223.000  7.18593e-16
 5224.000  6.69612e-16
 5225.000  7.04451e-16
 5226.000  7.39016e-16
 5227.000  7.41077e-16
 5228.000  7.53588e-16
 5229.000  7.38139e-16
 5230.000  7.54600e-16
 5231.000  7.50062e-16
 5232.000  7.31117e-16
 5233.000  7.59973e-16
 5234.000  9.21234e-16
 5235.000  8.46390e-16
 5236.000  8.18229e-16
 5237.000  7.72167e-16
 5238.000  7.44211e-16
 5239.000  7.58942e-16
 5240.000  7.34231e-16
 5241.000  7.30160e-16
 5242.000  7.50208e-16
 5243.000  7.40844e-16
 5244.000  7.70018e-16
 5245.000  7.68154e-16
 5246.000  7.06436e-16
 5247.000  6.72257e-16
 5248.000  7.62142e-16
 5249.000  7.54219e-16
 5250.000  7.17928e-16
 5251.000  7.34078e-16
 5252.000  7.57801e-16
 5253.000  7.49122e-16
 5254.000  7.77201e-16
 5255.000  7.40026e-16
 5256.000  7.79364e-16
 5257.000  7.57056e-16
 5258.000  7.74690e-16
 5259.000  7.66490e-16
 5260.000  7.29733e-16
 5261.000  7.27390e-16
 5262.000  7.27003e-16
 5263.000  7.12335e-16
 5264.000  7.30581e-16
 5265.000  6.68202e-16
 5266.000  7.35276e-16
 5267.000  7.45030e-16
 5268.000  7.22895e-16
 5269.000  8.01863e-16
 5270.000  7.58481e-16
 5271.000  7.50758e-16
 5272.000  7.67140e-16
 5273.000  7.63552e-16
 5274.000  8.19535e-16
 5275.000  8.50188e-16
 5276.000  9.23880e-16
 5277.000  8.50235e-16
 5278.000  8.14993e-16
 5279.000  7.80288e-16
 5280.000  7.68459e-16
 5281.000  7.58677e-16
 5282.000  7.42924e-16
 5283.000  7.51923e-16
 5284.000  8.26045e-16
 5285.000  8.04116e-16
 5286.000  8.20522e-16
 5287.000  8.07656e-16
 5288.000  7.85793e-16
 5289.000  7.87366e-16
 5290.000  7.97531e-16
 5291.000  7.85688e-16
 5292.000  8.00011e-16
 5293.000  8.04622e-16
 5294.000  8.05555e-16
 5295.000  7.93173e-16
 5296.000  7.34398e-16
 5297.000  7.28829e-16
 5298.000  7.17079e-16
 5299.000  7.80222e-16
 5300.000  7.62644e-16
 5301.000  7.98663e-16
 5302.000  7.84188e-16
 5303.000  8.36563e-16
 5304.000  8.29727e-16
 5305.000  8.29367e-16
 5306.000  8.00754e-16
 5307.000  7.90712e-16
 5308.000  8.03195e-16
 5309.000  8.34967e-16
 5310.000  8.02402e-16
 5311.000  8.29138e-16
 5312.000  8.16148e-16
 5313.000  8.02956e-16
 5314.000  8.37157e-16
 5315.000  9.64108e-16
 5316.000  1.25680e-15
 5317.000  1.10940e-15
 5318.000  9.11318e-16
 5319.000  8.08851e-16
 5320.000  8.00594e-16
 5321.000  8.23754e-16
 5322.000  8.32545e-16
 5323.000  7.91832e-16
 5324.000  7.90287e-16
 5325.000  8.42837e-16
 5326.000  8.09963e-16
 5327.000  7.66089e-16
 5328.000  8.34872e-16
 5329.000  7.89430e-16
 5330.000  8.10771e-16
 5331.000  8.17626e-16
 5332.000  8.09112e-16
 5333.000  8.48515e-16
 5334.000  8.52049e-16
 5335.000  8.38660e-16
 5336.000  8.11500e-16
 5337.000  8.35170e-16
 5338.000  8.26503e-16
 5339.000  8.14710e-16
 5340.000  8.12872e-16
 5341.000  8.57205e-16
 5342.000  8.34584e-16
 5343.000  8.24851e-16
 5344.000  8.39884e-16
 5345.000  7.74587e-16
 5346.000  8.24423e-16
 5347.000  8.66156e-16
 5348.000  7.81860e-16
 5349.000  7.51977e-16
 5350.000  8.58388e-16
 5351.000  8.60724e-16
 5352.000  8.79928e-16
 5353.000  8.24050e-16
 5354.000  8.53492e-16
 5355.000  8.76970e-16
 5356.000  8.73165e-16
 5357.000  8.64979e-16
 5358.000  8.89457e-16
 5359.000  8.69728e-16
 5360.000  8.61544e-16
 5361.000  8.62281e-16
 5362.000  9.36048e-16
 5363.000  9.18060e-16
 5364.000  8.83417e-16
 5365.000  8.51437e-16
 5366.000  8.56456e-16
 5367.000  8.58484e-16
 5368.000  8.82581e-16
 5369.000  8.28678e-16
 5370.000  8.23770e-16
 5371.000  8.18150e-16
 5372.000  8.42966e-16
 5373.000  8.63557e-16
 5374.000  8.82574e-16
 5375.000  9.09972e-16
 5376.000  8.59343e-16
 5377.000  8.71306e-16
 5378.000  9.16455e-16
 5379.000  9.19837e-16
 5380.000  9.05294e-16
 5381.000  9.18991e-16
 5382.000  8.88412e-16
 5383.000  8.56939e-16
 5384.000  8.57958e-16
 5385.000  9.05199e-16
 5386.000  9.07601e-16
 5387.000  8.91392e-16
 5388.000  9.03733e-16
 5389.000  8.71259e-16
 5390.000  8.69538e-16
 5391.000  8.73909e-16
 5392.000  9.00997e-16
 5393.000  8.66635e-16
 5394.000  8.52843e-16
 5395.000  8.80609e-16
 5396.000  8.04544e-16
 5397.000  8.48661e-16
 5398.000  8.95085e-16
 5399.000  9.15549e-16
 5400.000  8.73623e-16
 5401.000  8.70683e-16
 5402.000  9.31695e-16
 5403.000  8.91083e-16
 5404.000  8.66998e-16
 5405.000  8.43060e-16
 5406.000  8.51264e-16
 5407.000  8.78106e-16
 5408.000  9.03407e-16
 5409.000  7.73538e-16
 5410.000  8.63568e-16
 5411.000  9.02353e-16
 5412.000  8.89186e-16
 5413.000  9.43154e-16
 5414.000  9.50447e-16
 5415.000  9.22295e-16
 5416.000  9.08505e-16
 5417.000  9.61139e-16
 5418.000  9.50899e-16
 5419.000  9.42486e-16
 5420.000  8.88167e-16
 5421.000  9.12363e-16
 5422.000  9.54745e-16
 5423.000  9.15122e-16
 5424.000  9.19148e-16
 5425.000  9.62880e-16
 5426.000  9.25085e-16
 5427.000  9.82520e-16
 5428.000  9.17749e-16
 5429.000  8.72257e-16
 5430.000  8.87019e-16
 5431.000  9.23789e-16
 5432.000  8.42740e-16
 5433.000  9.46995e-16
 5434.000  8.38209e-16
 5435.000  9.12529e-16
 5436.000  8.85214e-16
 5437.000  9.64846e-16
 5438.000  9.00080e-16
 5439.000  9.33316e-16
 5440.000  9.61103e-16
 5441.000  9.73051e-16
 5442.000  9.29939e-16
 5443.000  9.66929e-16
 5444.000  9.30812e-16
 5445.000  9.11562e-16
 5446.000  8.41838e-16
 5447.000  8.69719e-16
 5448.000  8.55792e-16
 5449.000  8.85619e-16
 5450.000  8.74285e-16
 5451.000  8.63164e-16
 5452.000  8.79952e-16
 5453.000  8.56079e-16
 5454.000  8.61371e-16
 5455.000  8.44273e-16
 5456.000  8.62365e-16
 5457.000  8.79456e-16
 5458.000  8.84462e-16
 5459.000  9.19193e-16
 5460.000  8.31991e-16
 5461.000  8.70083e-16
 5462.000  8.82686e-16
 5463.000  8.70506e-16
 5464.000  8.90918e-16
 5465.000  9.05052e-16
 5466.000  8.96014e-16
 5467.000  9.34765e-16
 5468.000  9.00198e-16
 5469.000  9.00985e-16
 5470.000  8.50581e-16
 5471.000  9.11631e-16
 5472.000  9.09642e-16
 5473.000  8.95185e-16
 5474.000  8.57957e-16
 5475.000  9.16180e-16
 5476.000  8.64443e-16
 5477.000  8.97488e-16
 5478.000  9.05151e-16
 5479.000  9.20282e-16
 5480.000  9.19532e-16
 5481.000  8.50732e-16
 5482.000  9.03914e-16
 5483.000  9.30759e-16
 5484.000  9.15851e-16
 5485.000  9.36502e-16
 5486.000  9.15842e-16
 5487.000  8.71196e-16
 5488.000  9.06601e-16
 5489.000  9.46110e-16
 5490.000  9.05819e-16
 5491.000  9.66274e-16
 5492.000  9.34136e-16
 5493.000  9.42909e-16
 5494.000  9.13081e-16
 5495.000  9.12956e-16
 5496.000  9.60561e-16
 5497.000  8.74539e-16
 5498.000  9.28718e-16
 5499.000  9.25546e-16
 5500.000  8.86984e-16
 5501.000  8.89306e-16
 5502.000  9.22112e-16
 5503.000  8.87903e-16
 5504.000  8.77955e-16
 5505.000  9.04125e-16
 5506.000  8.75277e-16
 5507.000  9.09293e-16
 5508.000  9.54328e-16
 5509.000  9.63650e-16
 5510.000  9.06666e-16
 5511.000  8.56698e-16
 5512.000  8.62826e-16
 5513.000  8.84326e-16
 5514.000  8.02279e-16
 5515.000  8.90882e-16
 5516.000  8.77276e-16
 5517.000  9.31409e-16
 5518.000  9.39956e-16
 5519.000  9.32700e-16
 5520.000  9.19856e-16
 5521.000  9.88651e-16
 5522.000  9.70965e-16
 5523.000  9.43929e-16
 5524.000  9.33602e-16
 5525.000  9.21188e-16
 5526.000  9.70042e-16
 5527.000  9.52954e-16
 5528.000  8.82770e-16
 5529.000  9.43252e-16
 5530.000  9.52596e-16
 5531.000  9.66985e-16
 5532.000  9.43776e-16
 5533.000  9.21858e-16
 5534.000  1.00022e-15
 5535.000  9.87583e-16
 5536.000  1.02771e-15
 5537.000  9.99691e-16
 5538.000  9.62990e-16
 5539.000  9.32126e-16
 5540.000  9.78882e-16
 5541.000  9.65340e-16
 5542.000  9.78034e-16
 5543.000  9.17590e-16
 5544.000  9.75240e-16
 5545.000  9.86231e-16
 5546.000  9.67921e-16
 5547.000  9.21912e-16
 5548.000  1.00694e-15
 5549.000  9.89251e-16
 5550.000  9.78291e-16
 5551.000  9.68227e-16
 5552.000  1.00504e-15
 5553.000  9.72758e-16
 5554.000  1.00766e-15
 5555.000  9.82351e-16
 5556.000  9.69268e-16
 5557.000  9.83093e-16
 5558.000  1.00605e-15
 5559.000  1.01579e-15
 5560.000  1.00751e-15
 5561.000  1.01209e-15
 5562.000  9.73430e-16
 5563.000  9.91407e-16
 5564.000  1.02804e-15
 5565.000  9.70929e-16
 5566.000  1.00064e-15
 5567.000  9.73241e-16
 5568.000  1.01022e-15
 5569.000  1.00984e-15
 5570.000  1.02072e-15
 5571.000  9.96537e-16
 5572.000  1.01991e-15
 5573.000  1.01630e-15
 5574.000  1.02699e-15
 5575.000  1.02425e-15
 5576.000  9.76377e-16
 5577.000  1.37193e-15
 5578.000  1.07852e-15
 5579.000  1.04705e-15
 5580.000  1.04571e-15
 5581.000  1.03044e-15
 5582.000  9.48151e-16
 5583.000  1.01604e-15
 5584.000  1.01676e-15
 5585.000  1.03585e-15
 5586.000  9.76322e-16
 5587.000  9.85844e-16
 5588.000  9.51170e-16
 5589.000  9.40842e-16
 5590.000  9.01058e-16
 5591.000  1.05276e-15
 5592.000  9.64275e-16
 5593.000  1.04190e-15
 5594.000  8.78901e-16
 5595.000  1.02735e-15
 5596.000  1.04045e-15
 5597.000  1.01990e-15
 5598.000  8.76469e-16
 5599.000  1.01062e-15
 5600.000  9.50460e-16
 5601.000  8.77853e-16
 5602.000  1.02908e-15
 5603.000  1.00244e-15
 5604.000  9.94687e-16
 5605.000  1.04391e-15
 5606.000  1.03063e-15
 5607.000  9.96537e-16
 5608.000  1.04443e-15
 5609.000  1.01855e-15
 5610.000  1.00896e-15
 5611.000  1.03659e-15
 5612.000  1.03870e-15
 5613.000  1.03774e-15
 5614.000  1.02518e-15
 5615.000  9.58280e-16
 5616.000  9.88341e-16
 5617.000  9.96581e-16
 5618.000  1.02110e-15
 5619.000  9.79298e-16
 5620.000  9.60121e-16
 5621.000  9.85031e-16
 5622.000  1.04241e-15
 5623.000  9.99140e-16
 5624.000  9.75257e-16
 5625.000  1.01108e-15
 5626.000  1.01253e-15
 5627.000  1.00922e-15
 5628.000  1.05793e-15
 5629.000  9.58910e-16
 5630.000  9.73300e-16
 5631.000  1.00288e-15
 5632.000  9.89175e-16
 5633.000  1.04932e-15
 5634.000  1.02064e-15
 5635.000  1.02100e-15
 5636.000  9.90764e-16
 5637.000  1.00027e-15
 5638.000  1.01221e-15
 5639.000  1.00265e-15
 5640.000  9.90976e-16
 5641.000  1.00319e-15
 5642.000  1.01235e-15
 5643.000  1.00844e-15
 5644.000  9.73379e-16
 5645.000  1.03041e-15
 5646.000  9.73768e-16
 5647.000  1.02683e-15
 5648.000  9.96435e-16
 5649.000  9.93431e-16
 5650.000  1.01808e-15
 5651.000  1.04927e-15
 5652.000  1.02926e-15
 5653.000  1.04702e-15
 5654.000  1.03245e-15
 5655.000  1.02606e-15
 5656.000  1.08778e-15
 5657.000  1.00768e-15
 5658.000  1.01073e-15
 5659.000  9.78366e-16
 5660.000  1.06013e-15
 5661.000  1.02215e-15
 5662.000  9.40798e-16
 5663.000  1.03686e-15
 5664.000  9.84790e-16
 5665.000  1.04108e-15
 5666.000  1.03361e-15
 5667.000  1.02663e-15
 5668.000  9.81943e-16
 5669.000  1.03148e-15
 5670.000  1.03643e-15
 5671.000  1.01221e-15
 5672.000  1.03913e-15
 5673.000  1.02927e-15
 5674.000  1.03307e-15
 5675.000  1.00333e-15
 5676.000  1.06200e-15
 5677.000  1.05937e-15
 5678.000  1.06285e-15
 5679.000  1.03836e-15
 5680.000  1.03825e-15
 5681.000  1.04220e-15
 5682.000  9.93291e-16
 5683.000  1.04237e-15
 5684.000  1.05154e-15
 5685.000  1.06884e-15
 5686.000  1.03354e-15
 5687.000  1.04109e-15
 5688.000  8.75210e-16
 5689.000  1.02176e-15
 5690.000  1.07823e-15
 5691.000  1.05176e-15
 5692.000  1.05837e-15
 5693.000  1.05959e-15
 5694.000  1.05092e-15
 5695.000  1.06559e-15
 5696.000  1.04907e-15
 5697.000  1.08284e-15
 5698.000  9.39999e-16
 5699.000  1.08263e-15
 5700.000  1.00916e-15
 5701.000  1.03968e-15
 5702.000  1.02555e-15
 5703.000  1.03868e-15
 5704.000  1.08199e-15
 5705.000  1.05935e-15
 5706.000  1.05841e-15
 5707.000  1.02248e-15
 5708.000  1.03051e-15
 5709.000  1.01715e-15
 5710.000  1.08940e-15
 5711.000  1.02961e-15
 5712.000  1.02767e-15
 5713.000  1.09743e-15
 5714.000  1.07501e-15
 5715.000  1.02943e-15
 5716.000  1.06765e-15
 5717.000  1.04174e-15
 5718.000  1.06031e-15
 5719.000  1.06288e-15
 5720.000  1.07553e-15
 5721.000  1.07318e-15
 5722.000  1.10492e-15
 5723.000  1.09775e-15
 5724.000  1.06697e-15
 5725.000  1.08640e-15
 5726.000  1.13091e-15
 5727.000  9.81787e-16
 5728.000  1.09259e-15
 5729.000  1.08785e-15
 5730.000  1.09588e-15
 5731.000  9.68223e-16
 5732.000  1.09842e-15
 5733.000  1.09299e-15
 5734.000  1.07819e-15
 5735.000  1.10561e-15
 5736.000  1.12208e-15
 5737.000  1.02677e-15
 5738.000  1.10965e-15
 5739.000  1.08504e-15
 5740.000  1.10836e-15
 5741.000  1.09752e-15
 5742.000  1.09036e-15
 5743.000  1.02780e-15
 5744.000  1.16481e-15
 5745.000  1.12074e-15
 5746.000  1.11194e-15
 5747.000  1.12324e-15
 5748.000  1.05613e-15
 5749.000  1.11053e-15
 5750.000  1.11107e-15
 5751.000  1.13427e-15
 5752.000  1.09311e-15
 5753.000  1.09364e-15
 5754.000  1.11001e-15
 5755.000  1.13642e-15
 5756.000  1.15038e-15
 5757.000  1.13638e-15
 5758.000  1.14059e-15
 5759.000  1.12908e-15
 5760.000  1.12897e-15
 5761.000  1.12218e-15
 5762.000  1.06028e-15
 5763.000  1.06357e-15
 5764.000  1.12863e-15
 5765.000  1.11431e-15
 5766.000  1.06864e-15
 5767.000  1.12133e-15
 5768.000  1.12737e-15
 5769.000  1.13095e-15
 5770.000  1.13779e-15
 5771.000  1.11440e-15
 5772.000  1.11694e-15
 5773.000  1.15143e-15
 5774.000  1.12233e-15
 5775.000  1.10763e-15
 5776.000  1.11739e-15
 5777.000  1.13128e-15
 5778.000  1.09845e-15
 5779.000  1.13656e-15
 5780.000  1.10726e-15
 5781.000  1.06922e-15
 5782.000  1.06951e-15
 5783.000  1.10934e-15
 5784.000  1.11391e-15
 5785.000  1.07102e-15
 5786.000  1.09048e-15
 5787.000  1.16203e-15
 5788.000  1.09821e-15
 5789.000  1.13710e-15
 5790.000  1.14201e-15
 5791.000  1.07567e-15
 5792.000  1.15285e-15
 5793.000  1.15764e-15
 5794.000  1.19427e-15
 5795.000  1.17989e-15
 5796.000  1.17683e-15
 5797.000  1.16682e-15
 5798.000  1.12966e-15
 5799.000  1.21756e-15
 5800.000  1.16242e-15
 5801.000  1.22431e-15
 5802.000  1.20355e-15
 5803.000  1.17103e-15
 5804.000  1.15132e-15
 5805.000  1.18120e-15
 5806.000  1.20460e-15
 5807.000  1.20122e-15
 5808.000  1.20805e-15
 5809.000  1.15858e-15
 5810.000  1.19292e-15
 5811.000  1.17853e-15
 5812.000  1.19445e-15
 5813.000  1.16296e-15
 5814.000  1.18636e-15
 5815.000  1.16347e-15
 5816.000  1.14336e-15
 5817.000  1.16509e-15
 5818.000  1.17783e-15
 5819.000  1.18282e-15
 5820.000  1.18357e-15
 5821.000  1.17977e-15
 5822.000  1.18973e-15
 5823.000  1.19186e-15
 5824.000  1.19005e-15
 5825.000  1.20193e-15
 5826.000  1.19183e-15
 5827.000  1.21073e-15
 5828.000  1.17795e-15
 5829.000  1.18946e-15
 5830.000  1.23467e-15
 5831.000  1.21462e-15
 5832.000  1.21675e-15
 5833.000  1.24054e-15
 5834.000  1.18786e-15
 5835.000  1.18681e-15
 5836.000  1.21486e-15
 5837.000  1.21197e-15
 5838.000  1.20680e-15
 5839.000  1.17517e-15
 5840.000  1.22438e-15
 5841.000  1.21870e-15
 5842.000  1.22116e-15
 5843.000  1.23014e-15
 5844.000  1.18027e-15
 5845.000  1.21968e-15
 5846.000  1.21552e-15
 5847.000  1.21741e-15
 5848.000  1.19876e-15
 5849.000  1.18263e-15
 5850.000  1.18582e-15
 5851.000  1.18274e-15
 5852.000  1.14759e-15
 5853.000  1.16392e-15
 5854.000  1.19736e-15
 5855.000  1.19094e-15
 5856.000  1.24629e-15
 5857.000  1.03483e-15
 5858.000  1.16861e-15
 5859.000  1.20546e-15
 5860.000  1.21291e-15
 5861.000  1.21533e-15
 5862.000  1.14737e-15
 5863.000  1.15246e-15
 5864.000  1.18888e-15
 5865.000  1.18046e-15
 5866.000  1.13090e-15
 5867.000  1.17134e-15
 5868.000  1.20086e-15
 5869.000  1.21386e-15
 5870.000  1.22077e-15
 5871.000  1.26893e-15
 5872.000  1.33105e-15
 5873.000  1.53279e-15
 5874.000  2.01310e-15
 5875.000  3.21069e-15
 5876.000  3.23297e-15
 5877.000  2.09159e-15
 5878.000  1.55344e-15
 5879.000  1.27686e-15
 5880.000  1.11299e-15
 5881.000  1.17164e-15
 5882.000  1.13000e-15
 5883.000  1.11463e-15
 5884.000  1.09921e-15
 5885.000  1.09587e-15
 5886.000  1.05894e-15
 5887.000  1.12949e-15
 5888.000  1.41803e-15
 5889.000  1.92226e-15
 5890.000  2.13788e-15
 5891.000  1.75615e-15
 5892.000  1.27506e-15
 5893.000  1.09201e-15
 5894.000  1.26682e-15
 5895.000  1.62100e-15
 5896.000  1.77806e-15
 5897.000  1.53289e-15
 5898.000  1.19072e-15
 5899.000  1.00003e-15
 5900.000  1.03526e-15
 5901.000  1.09896e-15
 5902.000  1.09457e-15
 5903.000  1.11503e-15
 5904.000  1.17192e-15
 5905.000  1.13727e-15
 5906.000  1.16008e-15
 5907.000  1.16810e-15
 5908.000  1.16819e-15
 5909.000  1.16202e-15
 5910.000  1.16276e-15
 5911.000  1.17516e-15
 5912.000  1.17406e-15
 5913.000  1.17336e-15
 5914.000  1.13559e-15
 5915.000  1.17143e-15
 5916.000  1.13313e-15
 5917.000  1.19859e-15
 5918.000  1.17332e-15
 5919.000  1.18378e-15
 5920.000  1.19083e-15
 5921.000  1.20596e-15
 5922.000  1.12901e-15
 5923.000  1.18800e-15
 5924.000  1.18014e-15
 5925.000  1.17972e-15
 5926.000  1.17596e-15
 5927.000  1.19874e-15
 5928.000  1.20509e-15
 5929.000  1.19335e-15
 5930.000  1.16669e-15
 5931.000  1.21687e-15
 5932.000  1.20453e-15
 5933.000  1.21767e-15
 5934.000  1.20420e-15
 5935.000  1.20501e-15
 5936.000  1.23276e-15
 5937.000  1.24610e-15
 5938.000  1.24868e-15
 5939.000  1.22621e-15
 5940.000  1.23060e-15
 5941.000  1.21244e-15
 5942.000  1.22500e-15
 5943.000  1.25482e-15
 5944.000  1.23622e-15
 5945.000  1.26526e-15
 5946.000  1.23895e-15
 5947.000  1.27048e-15
 5948.000  1.20116e-15
 5949.000  1.20459e-15
 5950.000  1.22473e-15
 5951.000  1.23643e-15
 5952.000  1.23248e-15
 5953.000  1.16038e-15
 5954.000  1.28161e-15
 5955.000  1.20436e-15
 5956.000  1.23071e-15
 5957.000  1.24672e-15
 5958.000  1.21344e-15
 5959.000  1.23974e-15
 5960.000  1.28466e-15
 5961.000  1.28259e-15
 5962.000  1.30662e-15
 5963.000  1.26212e-15
 5964.000  1.28966e-15
 5965.000  1.24809e-15
 5966.000  1.23498e-15
 5967.000  1.28102e-15
 5968.000  1.26825e-15
 5969.000  1.26158e-15
 5970.000  1.28611e-15
 5971.000  1.28394e-15
 5972.000  1.25267e-15
 5973.000  1.26836e-15
 5974.000  1.28692e-15
 5975.000  1.27053e-15
 5976.000  1.29262e-15
 5977.000  1.27705e-15
 5978.000  1.26521e-15
 5979.000  1.30640e-15
 5980.000  1.30447e-15
 5981.000  1.29990e-15
 5982.000  1.31266e-15
 5983.000  1.28176e-15
 5984.000  1.29091e-15
 5985.000  1.27868e-15
 5986.000  1.32369e-15
 5987.000  1.28297e-15
 5988.000  1.28323e-15
 5989.000  1.29624e-15
 5990.000  1.27851e-15
 5991.000  1.36437e-15
 5992.000  1.33493e-15
 5993.000  1.35480e-15
 5994.000  1.34262e-15
 5995.000  1.32665e-15
 5996.000  1.30465e-15
 5997.000  1.31572e-15
 5998.000  1.34035e-15
 5999.000  1.28168e-15
 6000.000  1.30763e-15
 6001.000  1.31281e-15
 6002.000  1.29328e-15
 6003.000  1.28255e-15
 6004.000  1.34019e-15
 6005.000  1.30306e-15
 6006.000  1.31831e-15
 6007.000  1.26606e-15
 6008.000  1.28292e-15
 6009.000  1.31649e-15
 6010.000  1.34256e-15
 6011.000  1.31896e-15
 6012.000  1.30406e-15
 6013.000  1.25535e-15
 6014.000  1.34270e-15
 6015.000  1.33998e-15
 6016.000  1.30192e-15
 6017.000  1.30479e-15
 6018.000  1.31567e-15
 6019.000  1.31984e-15
 6020.000  1.26097e-15
 6021.000  1.31447e-15
 6022.000  1.31781e-15
 6023.000  1.31249e-15
 6024.000  1.27504e-15
 6025.000  1.32618e-15
 6026.000  1.35517e-15
 6027.000  1.29340e-15
 6028.000  1.34359e-15
 6029.000  1.35566e-15
 6030.000  1.33362e-15
 6031.000  1.34714e-15
 6032.000  1.34847e-15
 6033.000  1.35102e-15
 6034.000  1.35871e-15
 6035.000  1.35483e-15
 6036.000  1.29718e-15
 6037.000  1.31769e-15
 6038.000  1.32891e-15
 6039.000  1.33131e-15
 6040.000  1.33863e-15
 6041.000  1.34194e-15
 6042.000  1.34897e-15
 6043.000  1.36058e-15
 6044.000  1.35301e-15
 6045.000  1.37198e-15
 6046.000  1.39723e-15
 6047.000  1.37957e-15
 6048.000  1.37572e-15
 6049.000  1.35862e-15
 6050.000  1.38619e-15
 6051.000  1.36758e-15
 6052.000  1.41640e-15
 6053.000  1.35710e-15
 6054.000  1.35515e-15
 6055.000  1.37026e-15
 6056.000  1.35098e-15
 6057.000  1.34529e-15
 6058.000  1.29330e-15
 6059.000  1.37080e-15
 6060.000  1.39856e-15
 6061.000  1.39080e-15
 6062.000  1.38415e-15
 6063.000  1.33863e-15
 6064.000  1.33812e-15
 6065.000  1.29772e-15
 6066.000  1.38961e-15
 6067.000  1.39145e-15
 6068.000  1.40709e-15
 6069.000  1.41006e-15
 6070.000  1.40327e-15
 6071.000  1.40403e-15
 6072.000  1.38537e-15
 6073.000  1.38617e-15
 6074.000  1.40301e-15
 6075.000  1.41753e-15
 6076.000  1.41196e-15
 6077.000  1.42575e-15
 6078.000  1.39028e-15
 6079.000  1.36919e-15
 6080.000  1.39180e-15
 6081.000  1.32109e-15
 6082.000  1.41172e-15
 6083.000  1.41504e-15
 6084.000  1.44154e-15
 6085.000  1.29239e-15
 6086.000  1.42037e-15
 6087.000  1.43612e-15
 6088.000  1.42207e-15
 6089.000  1.42957e-15
 6090.000  1.27017e-15
 6091.000  1.33828e-15
 6092.000  1.45582e-15
 6093.000  1.41628e-15
 6094.000  1.44235e-15
 6095.000  1.42996e-15
 6096.000  1.46903e-15
 6097.000  1.39660e-15
 6098.000  1.43163e-15
 6099.000  1.44673e-15
 6100.000  1.43381e-15
 6101.000  1.42762e-15
 6102.000  1.22123e-15
 6103.000  1.25123e-15
 6104.000  1.42823e-15
 6105.000  1.44253e-15
 6106.000  1.46424e-15
 6107.000  1.46492e-15
 6108.000  1.38634e-15
 6109.000  1.47060e-15
 6110.000  1.44711e-15
 6111.000  1.39946e-15
 6112.000  1.46999e-15
 6113.000  1.48725e-15
 6114.000  1.48079e-15
 6115.000  1.48689e-15
 6116.000  1.41790e-15
 6117.000  1.45782e-15
 6118.000  1.46382e-15
 6119.000  1.39425e-15
 6120.000  1.38653e-15
 6121.000  1.30480e-15
 6122.000  1.06699e-15
 6123.000  1.35636e-15
 6124.000  1.45835e-15
 6125.000  1.48169e-15
 6126.000  1.33422e-15
 6127.000  1.44996e-15
 6128.000  1.45145e-15
 6129.000  1.49941e-15
 6130.000  1.50296e-15
 6131.000  1.51587e-15
 6132.000  1.42398e-15
 6133.000  1.49096e-15
 6134.000  1.46222e-15
 6135.000  1.33713e-15
 6136.000  1.42757e-15
 6137.000  1.38292e-15
 6138.000  1.44262e-15
 6139.000  1.50671e-15
 6140.000  1.48416e-15
 6141.000  1.45471e-15
 6142.000  1.47250e-15
 6143.000  1.44043e-15
 6144.000  1.46857e-15
 6145.000  1.42170e-15
 6146.000  1.45235e-15
 6147.000  1.53586e-15
 6148.000  1.51957e-15
 6149.000  1.44226e-15
 6150.000  1.32493e-15
 6151.000  1.48048e-15
 6152.000  1.50655e-15
 6153.000  1.47455e-15
 6154.000  1.31548e-15
 6155.000  1.48183e-15
 6156.000  1.43752e-15
 6157.000  1.48129e-15
 6158.000  1.46444e-15
 6159.000  1.35514e-15
 6160.000  1.32346e-15
 6161.000  1.16185e-15
 6162.000  1.06794e-15
 6163.000  1.22894e-15
 6164.000  1.31824e-15
 6165.000  1.30785e-15
 6166.000  1.25365e-15
 6167.000  1.37379e-15
 6168.000  1.34653e-15
 6169.000  1.13939e-15
 6170.000  1.29615e-15
 6171.000  1.37855e-15
 6172.000  1.39568e-15
 6173.000  1.32922e-15
 6174.000  1.34810e-15
 6175.000  1.33416e-15
 6176.000  1.40432e-15
 6177.000  1.35125e-15
 6178.000  1.38385e-15
 6179.000  1.40740e-15
 6180.000  1.35392e-15
 6181.000  1.41069e-15
 6182.000  1.38212e-15
 6183.000  1.36886e-15
 6184.000  1.37309e-15
 6185.000  1.38264e-15
 6186.000  1.30265e-15
 6187.000  1.34942e-15
 6188.000  1.35398e-15
 6189.000  1.31985e-15
 6190.000  1.34357e-15
 6191.000  1.25838e-15
 6192.000  1.33328e-15
 6193.000  1.34864e-15
 6194.000  1.34738e-15
 6195.000  1.38328e-15
 6196.000  1.36284e-15
 6197.000  1.38134e-15
 6198.000  1.39297e-15
 6199.000  1.25362e-15
 6200.000  1.33721e-15
 6201.000  1.39492e-15
 6202.000  1.40619e-15
 6203.000  1.39295e-15
 6204.000  1.40183e-15
 6205.000  1.36802e-15
 6206.000  1.40210e-15
 6207.000  1.40818e-15
 6208.000  1.40043e-15
 6209.000  1.40403e-15
 6210.000  1.37438e-15
 6211.000  1.41047e-15
 6212.000  1.40479e-15
 6213.000  1.31390e-15
 6214.000  1.35963e-15
 6215.000  1.23669e-15
 6216.000  1.23663e-15
 6217.000  1.38281e-15
 6218.000  1.33204e-15
 6219.000  1.32246e-15
 6220.000  1.35087e-15
 6221.000  1.31413e-15
 6222.000  1.34877e-15
 6223.000  1.33326e-15
 6224.000  1.27914e-15
 6225.000  1.35657e-15
 6226.000  1.34414e-15
 6227.000  1.35953e-15
 6228.000  1.36926e-15
 6229.000  1.31320e-15
 6230.000  1.30836e-15
 6231.000  1.32625e-15
 6232.000  1.36895e-15
 6233.000  1.29688e-15
 6234.000  1.39632e-15
 6235.000  1.39684e-15
 6236.000  1.38100e-15
 6237.000  1.37185e-15
 6238.000  1.41912e-15
 6239.000  1.31325e-15
 6240.000  1.31325e-15
 6241.000  1.41275e-15
 6242.000  1.32324e-15
 6243.000  1.24953e-15
 6244.000  1.40994e-15
 6245.000  1.37057e-15
 6246.000  1.36151e-15
 6247.000  1.47758e-15
 6248.000  1.45863e-15
 6249.000  1.42806e-15
 6250.000  1.41462e-15
 6251.000  1.44719e-15
 6252.000  1.39711e-15
 6253.000  1.41679e-15
 6254.000  1.35793e-15
 6255.000  1.44445e-15
 6256.000  1.38070e-15
 6257.000  1.40310e-15
 6258.000  1.27062e-15
 6259.000  1.38156e-15
 6260.000  1.41866e-15
 6261.000  1.30923e-15
 6262.000  1.44978e-15
 6263.000  1.47441e-15
 6264.000  1.48646e-15
 6265.000  1.41914e-15
 6266.000  1.36862e-15
 6267.000  1.46793e-15
 6268.000  1.33836e-15
 6269.000  1.43316e-15
 6270.000  1.41248e-15
 6271.000  1.42575e-15
 6272.000  1.48995e-15
 6273.000  1.45523e-15
 6274.000  1.43998e-15
 6275.000  1.45944e-15
 6276.000  1.46730e-15
 6277.000  1.45450e-15
 6278.000  1.49438e-15
 6279.000  1.51359e-15
 6280.000  1.43678e-15
 6281.000  1.48696e-15
 6282.000  1.47984e-15
 6283.000  1.50040e-15
 6284.000  1.48936e-15
 6285.000  1.37233e-15
 6286.000  1.56466e-15
 6287.000  1.52140e-15
 6288.000  1.52449e-15
 6289.000  1.53312e-15
 6290.000  1.50460e-15
 6291.000  1.49518e-15
 6292.000  1.53394e-15
 6293.000  1.47655e-15
 6294.000  1.49808e-15
 6295.000  1.47654e-15
 6296.000  1.46346e-15
 6297.000  1.50060e-15
 6298.000  1.57880e-15
 6299.000  1.72978e-15
 6300.000  2.64574e-15
 6301.000  1.71562e-15
 6302.000  1.58923e-15
 6303.000  1.66705e-15
 6304.000  1.59797e-15
 6305.000  1.48512e-15
 6306.000  1.51765e-15
 6307.000  1.53396e-15
 6308.000  1.54695e-15
 6309.000  1.52570e-15
 6310.000  1.51070e-15
 6311.000  1.51311e-15
 6312.000  1.47042e-15
 6313.000  1.55261e-15
 6314.000  1.51118e-15
 6315.000  1.51609e-15
 6316.000  1.55064e-15
 6317.000  1.60594e-15
 6318.000  1.57267e-15
 6319.000  1.54527e-15
 6320.000  1.61111e-15
 6321.000  1.54924e-15
 6322.000  1.55866e-15
 6323.000  1.54903e-15
 6324.000  1.58281e-15
 6325.000  1.48731e-15
 6326.000  1.55320e-15
 6327.000  1.55422e-15
 6328.000  1.61720e-15
 6329.000  1.59606e-15
 6330.000  1.46331e-15
 6331.000  1.61580e-15
 6332.000  1.60301e-15
 6333.000  1.63530e-15
 6334.000  1.59421e-15
 6335.000  1.44006e-15
 6336.000  1.52968e-15
 6337.000  1.57228e-15
 6338.000  1.59511e-15
 6339.000  1.58253e-15
 6340.000  1.62028e-15
 6341.000  1.64687e-15
 6342.000  1.60785e-15
 6343.000  1.59150e-15
 6344.000  1.52669e-15
 6345.000  1.55625e-15
 6346.000  1.66562e-15
 6347.000  1.74709e-15
 6348.000  1.68058e-15
 6349.000  1.62630e-15
 6350.000  1.63609e-15
 6351.000  1.66100e-15
 6352.000  1.67258e-15
 6353.000  1.63840e-15
 6354.000  1.61579e-15
 6355.000  1.55131e-15
 6356.000  1.63500e-15
 6357.000  1.58576e-15
 6358.000  1.61264e-15
 6359.000  1.58201e-15
 6360.000  1.58062e-15
 6361.000  1.56117e-15
 6362.000  1.56384e-15
 6363.000  1.78740e-15
 6364.000  1.82946e-15
 6365.000  1.63530e-15
 6366.000  1.58791e-15
 6367.000  1.63853e-15
 6368.000  1.61873e-15
 6369.000  1.59523e-15
 6370.000  1.67735e-15
 6371.000  1.67670e-15
 6372.000  1.65024e-15
 6373.000  1.65280e-15
 6374.000  1.58785e-15
 6375.000  1.63734e-15
 6376.000  1.59513e-15
 6377.000  1.54038e-15
 6378.000  1.55350e-15
 6379.000  1.54219e-15
 6380.000  1.54868e-15
 6381.000  1.48521e-15
 6382.000  1.52044e-15
 6383.000  1.66074e-15
 6384.000  1.60738e-15
 6385.000  1.61127e-15
 6386.000  1.62111e-15
 6387.000  1.57470e-15
 6388.000  1.56308e-15
 6389.000  1.51862e-15
 6390.000  1.61020e-15
 6391.000  1.67551e-15
 6392.000  1.60668e-15
 6393.000  1.57135e-15
 6394.000  1.67005e-15
 6395.000  1.69045e-15
 6396.000  1.76540e-15
 6397.000  1.76792e-15
 6398.000  1.71127e-15
 6399.000  1.74996e-15
 6400.000  1.54108e-15
 6401.000  1.64084e-15
 6402.000  1.59375e-15
 6403.000  1.65458e-15
 6404.000  1.68062e-15
 6405.000  1.66713e-15
 6406.000  1.68860e-15
 6407.000  1.74923e-15
 6408.000  1.65580e-15
 6409.000  1.74173e-15
 6410.000  1.75926e-15
 6411.000  1.66291e-15
 6412.000  1.73012e-15
 6413.000  1.59614e-15
 6414.000  1.74148e-15
 6415.000  1.71943e-15
 6416.000  1.78235e-15
 6417.000  1.71905e-15
 6418.000  1.69560e-15
 6419.000  1.72232e-15
 6420.000  1.70280e-15
 6421.000  1.61519e-15
 6422.000  1.74322e-15
 6423.000  1.75914e-15
 6424.000  1.70086e-15
 6425.000  1.75943e-15
 6426.000  1.79347e-15
 6427.000  1.75243e-15
 6428.000  1.73656e-15
 6429.000  1.74510e-15
 6430.000  1.72377e-15
 6431.000  1.74812e-15
 6432.000  1.78596e-15
 6433.000  1.79680e-15
 6434.000  1.80115e-15
 6435.000  1.71936e-15
 6436.000  1.78083e-15
 6437.000  1.74024e-15
 6438.000  1.68937e-15
 6439.000  1.44422e-15
 6440.000  1.76850e-15
 6441.000  1.77888e-15
 6442.000  1.78428e-15
 6443.000  1.84401e-15
 6444.000  1.82957e-15
 6445.000  1.78203e-15
 6446.000  1.84413e-15
 6447.000  1.82779e-15
 6448.000  1.73630e-15
 6449.000  1.55337e-15
 6450.000  1.61835e-15
 6451.000  1.79987e-15
 6452.000  1.71894e-15
 6453.000  1.85581e-15
 6454.000  1.85650e-15
 6455.000  1.80844e-15
 6456.000  1.96877e-15
 6457.000  1.93324e-15
 6458.000  1.89276e-15
 6459.000  1.83531e-15
 6460.000  1.85041e-15
 6461.000  1.80872e-15
 6462.000  1.50521e-15
 6463.000  1.73375e-15
 6464.000  1.76128e-15
 6465.000  1.86153e-15
 6466.000  1.84345e-15
 6467.000  1.84051e-15
 6468.000  1.87004e-15
 6469.000  1.82299e-15
 6470.000  1.84243e-15
 6471.000  1.72780e-15
 6472.000  1.89015e-15
 6473.000  1.89032e-15
 6474.000  1.86398e-15
 6475.000  1.77410e-15
 6476.000  1.81929e-15
 6477.000  1.89622e-15
 6478.000  1.86999e-15
 6479.000  1.83712e-15
 6480.000  1.86071e-15
 6481.000  1.84716e-15
 6482.000  1.81788e-15
 6483.000  1.81955e-15
 6484.000  1.80983e-15
 6485.000  1.81596e-15
 6486.000  1.85733e-15
 6487.000  1.84145e-15
 6488.000  1.88230e-15
 6489.000  1.95216e-15
 6490.000  1.84938e-15
 6491.000  1.84456e-15
 6492.000  1.85210e-15
 6493.000  1.73166e-15
 6494.000  1.70708e-15
 6495.000  1.74567e-15
 6496.000  1.75656e-15
 6497.000  1.74544e-15
 6498.000  1.85117e-15
 6499.000  1.68360e-15
 6500.000  1.92318e-15
 6501.000  1.77559e-15
 6502.000  1.91505e-15
 6503.000  1.88482e-15
 6504.000  1.80846e-15
 6505.000  1.85848e-15
 6506.000  1.91702e-15
 6507.000  1.92391e-15
 6508.000  1.77920e-15
 6509.000  1.89258e-15
 6510.000  1.95052e-15
 6511.000  1.93145e-15
 6512.000  1.90393e-15
 6513.000  1.89445e-15
 6514.000  1.95514e-15
 6515.000  1.91321e-15
 6516.000  2.04458e-15
 6517.000  1.93449e-15
 6518.000  1.89027e-15
 6519.000  1.91507e-15
 6520.000  1.94491e-15
 6521.000  1.96647e-15
 6522.000  1.99898e-15
 6523.000  1.92900e-15
 6524.000  1.96334e-15
 6525.000  1.97041e-15
 6526.000  1.98903e-15
 6527.000  1.97242e-15
 6528.000  2.02846e-15
 6529.000  2.01024e-15
 6530.000  2.01512e-15
 6531.000  1.92784e-15
 6532.000  2.03354e-15
 6533.000  2.03886e-15
 6534.000  2.07321e-15
 6535.000  2.12643e-15
 6536.000  2.11042e-15
 6537.000  2.11457e-15
 6538.000  2.05072e-15
 6539.000  2.16721e-15
 6540.000  2.16034e-15
 6541.000  2.17148e-15
 6542.000  2.19127e-15
 6543.000  2.13441e-15
 6544.000  2.13521e-15
 6545.000  2.24548e-15
 6546.000  2.09013e-15
 6547.000  2.31368e-15
 6548.000  2.32474e-15
 6549.000  2.48510e-15
 6550.000  2.51105e-15
 6551.000  2.56171e-15
 6552.000  2.71988e-15
 6553.000  3.01333e-15
 6554.000  3.01401e-15
 6555.000  3.66542e-15
 6556.000  4.42259e-15
 6557.000  6.35760e-15
 6558.000  1.17038e-14
 6559.000  1.88575e-14
 6560.000  2.30304e-14
 6561.000  2.54329e-14
 6562.000  2.61095e-14
 6563.000  2.57169e-14
 6564.000  2.41895e-14
 6565.000  2.15320e-14
 6566.000  1.87691e-14
 6567.000  1.43864e-14
 6568.000  8.10253e-15
 6569.000  4.68424e-15
 6570.000  3.68643e-15
 6571.000  3.13738e-15
 6572.000  2.86779e-15
 6573.000  2.67794e-15
 6574.000  2.45356e-15
 6575.000  2.35523e-15
 6576.000  2.37646e-15
 6577.000  2.37476e-15
 6578.000  2.26630e-15
 6579.000  2.18164e-15
 6580.000  2.17175e-15
 6581.000  2.03887e-15
 6582.000  2.17097e-15
 6583.000  2.13098e-15
 6584.000  2.11858e-15
 6585.000  2.11147e-15
 6586.000  2.06323e-15
 6587.000  2.11174e-15
 6588.000  1.97209e-15
 6589.000  2.03837e-15
 6590.000  2.10143e-15
 6591.000  2.05570e-15
 6592.000  1.98872e-15
 6593.000  1.96885e-15
 6594.000  1.92383e-15
 6595.000  2.00654e-15
 6596.000  2.03998e-15
 6597.000  1.98139e-15
 6598.000  2.02417e-15
 6599.000  1.86332e-15
 6600.000  2.03233e-15
 6601.000  2.01084e-15
 6602.000  2.01048e-15
 6603.000  2.01251e-15
 6604.000  1.99308e-15
 6605.000  1.97632e-15
 6606.000  1.94930e-15
 6607.000  1.98726e-15
 6608.000  1.97797e-15
 6609.000  1.88238e-15
 6610.000  1.97858e-15
 6611.000  2.00558e-15
 6612.000  1.97926e-15
 6613.000  1.96523e-15
 6614.000  1.97474e-15
 6615.000  1.98992e-15
 6616.000  1.98284e-15
 6617.000  1.96772e-15
 6618.000  1.98357e-15
 6619.000  1.98180e-15
 6620.000  1.98803e-15
 6621.000  1.96689e-15
 6622.000  1.97065e-15
 6623.000  1.97531e-15
 6624.000  1.98044e-15
 6625.000  1.76940e-15
 6626.000  1.90956e-15
 6627.000  1.91710e-15
 6628.000  1.93087e-15
 6629.000  1.93394e-15
 6630.000  1.89021e-15
 6631.000  1.98146e-15
 6632.000  1.94135e-15
 6633.000  1.96935e-15
 6634.000  1.90699e-15
 6635.000  1.94302e-15
 6636.000  1.93015e-15
 6637.000  1.93440e-15
 6638.000  1.95464e-15
 6639.000  1.96157e-15
 6640.000  1.95779e-15
 6641.000  1.98002e-15
 6642.000  1.99653e-15
 6643.000  1.95049e-15
 6644.000  1.99547e-15
 6645.000  1.97179e-15
 6646.000  1.97797e-15
 6647.000  1.99618e-15
 6648.000  1.97245e-15
 6649.000  1.95330e-15
 6650.000  1.93697e-15
 6651.000  1.83303e-15
 6652.000  1.91061e-15
 6653.000  1.91292e-15
 6654.000  1.90594e-15
 6655.000  1.94388e-15
 6656.000  1.96999e-15
 6657.000  1.93231e-15
 6658.000  1.94095e-15
 6659.000  1.93036e-15
 6660.000  1.95196e-15
 6661.000  1.88699e-15
 6662.000  1.93871e-15
 6663.000  1.83102e-15
 6664.000  1.96537e-15
 6665.000  1.95301e-15
 6666.000  1.94928e-15
 6667.000  2.00242e-15
 6668.000  1.96902e-15
 6669.000  1.97971e-15
 6670.000  1.98134e-15
 6671.000  2.00541e-15
 6672.000  2.03295e-15
 6673.000  2.02239e-15
 6674.000  2.03199e-15
 6675.000  2.06388e-15
 6676.000  2.22310e-15
 6677.000  2.44136e-15
 6678.000  3.58556e-15
 6679.000  2.49963e-15
 6680.000  2.16084e-15
 6681.000  1.98320e-15
 6682.000  1.92256e-15
 6683.000  2.01069e-15
 6684.000  1.92775e-15
 6685.000  1.94395e-15
 6686.000  1.92109e-15
 6687.000  1.88951e-15
 6688.000  1.94457e-15
 6689.000  1.93497e-15
 6690.000  1.91839e-15
 6691.000  1.94160e-15
 6692.000  1.96067e-15
 6693.000  1.94628e-15
 6694.000  1.92515e-15
 6695.000  1.95202e-15
 6696.000  1.85448e-15
 6697.000  1.98237e-15
 6698.000  1.93055e-15
 6699.000  1.97529e-15
 6700.000  1.96571e-15
 6701.000  1.97096e-15
 6702.000  2.00052e-15
 6703.000  1.94480e-15
 6704.000  1.99993e-15
 6705.000  1.96760e-15
 6706.000  1.94796e-15
 6707.000  1.76283e-15
 6708.000  1.68102e-15
 6709.000  1.98762e-15
 6710.000  1.91551e-15
 6711.000  1.92045e-15
 6712.000  1.95411e-15
 6713.000  1.98758e-15
 6714.000  1.91569e-15
 6715.000  1.88010e-15
 6716.000  1.92125e-15
 6717.000  1.82678e-15
 6718.000  1.84597e-15
 6719.000  1.95203e-15
 6720.000  1.94494e-15
 6721.000  1.91189e-15
 6722.000  1.90507e-15
 6723.000  1.93298e-15
 6724.000  1.88141e-15
 6725.000  1.95228e-15
 6726.000  1.89086e-15
 6727.000  1.92036e-15
 6728.000  1.92062e-15
 6729.000  1.95703e-15
 6730.000  1.92285e-15
 6731.000  1.92416e-15
 6732.000  1.95321e-15
 6733.000  1.94364e-15
 6734.000  2.05406e-15
 6735.000  1.93758e-15
 6736.000  1.92891e-15
 6737.000  1.95326e-15
 6738.000  1.98025e-15
 6739.000  1.90257e-15
 6740.000  1.97094e-15
 6741.000  1.98923e-15
 6742.000  1.93122e-15
 6743.000  1.82899e-15
 6744.000  1.96879e-15
 6745.000  1.92680e-15
 6746.000  1.91422e-15
 6747.000  1.92434e-15
 6748.000  1.90819e-15
 6749.000  1.88989e-15
 6750.000  1.85210e-15
 6751.000  1.93007e-15
 6752.000  1.92523e-15
 6753.000  1.88106e-15
 6754.000  1.94334e-15
 6755.000  1.95636e-15
 6756.000  1.92147e-15
 6757.000  2.00550e-15
 6758.000  2.02180e-15
 6759.000  1.90893e-15
 6760.000  1.90416e-15
 6761.000  1.96818e-15
 6762.000  1.91401e-15
 6763.000  2.04025e-15
 6764.000  1.86020e-15
 6765.000  1.95558e-15
 6766.000  1.97188e-15
 6767.000  1.99707e-15
 6768.000  1.96275e-15
 6769.000  1.92628e-15
 6770.000  1.99325e-15
 6771.000  2.01570e-15
 6772.000  1.93005e-15
 6773.000  1.94175e-15
 6774.000  2.02866e-15
 6775.000  2.02978e-15
 6776.000  1.97098e-15
 6777.000  1.99358e-15
 6778.000  1.96787e-15
 6779.000  2.05647e-15
 6780.000  1.96544e-15
 6781.000  1.79753e-15
 6782.000  1.96298e-15
 6783.000  1.85274e-15
 6784.000  1.92620e-15
 6785.000  1.90495e-15
 6786.000  1.92646e-15
 6787.000  1.95593e-15
 6788.000  1.92104e-15
 6789.000  1.93262e-15
 6790.000  1.91663e-15
 6791.000  1.97825e-15
 6792.000  1.95584e-15
 6793.000  1.90384e-15
 6794.000  1.93075e-15
 6795.000  1.96946e-15
 6796.000  1.85961e-15
 6797.000  2.00828e-15
 6798.000  1.87591e-15
 6799.000  2.00276e-15
 6800.000  2.05043e-15
 6801.000  1.96075e-15
 6802.000  2.05107e-15
 6803.000  2.02343e-15
 6804.000  2.02552e-15
 6805.000  1.97488e-15
 6806.000  2.01869e-15
 6807.000  2.00454e-15
 6808.000  1.98656e-15
 6809.000  2.08669e-15
 6810.000  1.91530e-15
 6811.000  1.99467e-15
 6812.000  1.95636e-15
 6813.000  2.09925e-15
 6814.000  1.95163e-15
 6815.000  1.90825e-15
 6816.000  1.99757e-15
 6817.000  1.95400e-15
 6818.000  2.06344e-15
 6819.000  1.94932e-15
 6820.000  2.03739e-15
 6821.000  2.06283e-15
 6822.000  2.02627e-15
 6823.000  1.95048e-15
 6824.000  1.98403e-15
 6825.000  2.11607e-15
 6826.000  2.05114e-15
 6827.000  1.97669e-15
 6828.000  2.02759e-15
 6829.000  2.12030e-15
 6830.000  2.06994e-15
 6831.000  2.05343e-15
 6832.000  1.93799e-15
 6833.000  2.08093e-15
 6834.000  2.11678e-15
 6835.000  2.07189e-15
 6836.000  2.00023e-15
 6837.000  2.08686e-15
 6838.000  2.09535e-15
 6839.000  2.05974e-15
 6840.000  2.10911e-15
 6841.000  2.00030e-15
 6842.000  2.07862e-15
 6843.000  2.11705e-15
 6844.000  2.10544e-15
 6845.000  2.04714e-15
 6846.000  2.04413e-15
 6847.000  2.09691e-15
 6848.000  2.06550e-15
 6849.000  2.12655e-15
 6850.000  1.99873e-15
 6851.000  2.08884e-15
 6852.000  2.03384e-15
 6853.000  1.98746e-15
 6854.000  2.05877e-15
 6855.000  2.09093e-15
 6856.000  2.03506e-15
 6857.000  2.08870e-15
 6858.000  2.05661e-15
 6859.000  1.99729e-15
 6860.000  2.07945e-15
 6861.000  1.98847e-15
 6862.000  1.98310e-15
 6863.000  1.99082e-15
 6864.000  2.23940e-15
 6865.000  2.09039e-15
 6866.000  1.94541e-15
 6867.000  2.28415e-15
 6868.000  2.15374e-15
 6869.000  2.10185e-15
 6870.000  1.95030e-15
 6871.000  2.24182e-15
 6872.000  2.11741e-15
 6873.000  2.14415e-15
 6874.000  1.88796e-15
 6875.000  1.97547e-15
 6876.000  2.05023e-15
 6877.000  2.01013e-15
 6878.000  1.96318e-15
 6879.000  2.27827e-15
 6880.000  2.08548e-15
 6881.000  2.10178e-15
 6882.000  2.14106e-15
 6883.000  2.11203e-15
 6884.000  2.08865e-15
 6885.000  2.14359e-15
 6886.000  1.91451e-15
 6887.000  2.14066e-15
 6888.000  2.16308e-15
 6889.000  2.15323e-15
 6890.000  2.14171e-15
 6891.000  2.20634e-15
 6892.000  2.13317e-15
 6893.000  2.24319e-15
 6894.000  2.16473e-15
 6895.000  2.19322e-15
 6896.000  2.26103e-15
 6897.000  2.33638e-15
 6898.000  2.12186e-15
 6899.000  2.22406e-15
 6900.000  2.11787e-15
 6901.000  2.11331e-15
 6902.000  1.98343e-15
 6903.000  2.25058e-15
 6904.000  2.20915e-15
 6905.000  2.39480e-15
 6906.000  2.08576e-15
 6907.000  2.30981e-15
 6908.000  2.17358e-15
 6909.000  2.30739e-15
 6910.000  2.28810e-15
 6911.000  2.15243e-15
 6912.000  2.28054e-15
 6913.000  2.24360e-15
 6914.000  2.23801e-15
 6915.000  2.38661e-15
 6916.000  2.03559e-15
 6917.000  2.30882e-15
 6918.000  2.16834e-15
 6919.000  2.06010e-15
 6920.000  2.15579e-15
 6921.000  2.37468e-15
 6922.000  2.24902e-15
 6923.000  2.38009e-15
 6924.000  2.07621e-15
 6925.000  2.17810e-15
 6926.000  2.14755e-15
 6927.000  2.38254e-15
 6928.000  2.28069e-15
 6929.000  2.24491e-15
 6930.000  2.36478e-15
 6931.000  2.27838e-15
 6932.000  2.37648e-15
 6933.000  2.24440e-15
 6934.000  2.24226e-15
 6935.000  2.39597e-15
 6936.000  2.29538e-15
 6937.000  2.36215e-15
 6938.000  2.23898e-15
 6939.000  2.26972e-15
 6940.000  2.32990e-15
 6941.000  2.33423e-15
 6942.000  2.40430e-15
 6943.000  2.54448e-15
 6944.000  2.32714e-15
 6945.000  2.30916e-15
 6946.000  2.39400e-15
 6947.000  2.46119e-15
 6948.000  2.43535e-15
 6949.000  2.29380e-15
 6950.000  2.54541e-15
 6951.000  2.37400e-15
 6952.000  2.43920e-15
 6953.000  2.39274e-15
 6954.000  2.40119e-15
 6955.000  2.46589e-15
 6956.000  2.34495e-15
 6957.000  2.47369e-15
 6958.000  2.38167e-15
 6959.000  2.50977e-15
 6960.000  2.42913e-15
 6961.000  2.39303e-15
 6962.000  2.39641e-15
 6963.000  2.51481e-15
 6964.000  2.48399e-15
 6965.000  2.50466e-15
 6966.000  2.30054e-15
 6967.000  2.50131e-15
 6968.000  2.50993e-15
 6969.000  2.37012e-15
 6970.000  2.41868e-15
 6971.000  2.48886e-15
 6972.000  2.32495e-15
 6973.000  2.56623e-15
 6974.000  2.38518e-15
 6975.000  2.35977e-15
 6976.000  2.59919e-15
 6977.000  2.37158e-15
 6978.000  2.23648e-15
 6979.000  2.49762e-15
 6980.000  2.50104e-15
 6981.000  2.48129e-15
 6982.000  2.43003e-15
 6983.000  2.57377e-15
 6984.000  2.52153e-15
 6985.000  2.58674e-15
 6986.000  2.48478e-15
 6987.000  2.55885e-15
 6988.000  2.48496e-15
 6989.000  2.38480e-15
 6990.000  2.57406e-15
 6991.000  2.46177e-15
 6992.000  2.53771e-15
 6993.000  2.57094e-15
 6994.000  2.41864e-15
 6995.000  2.28126e-15
 6996.000  2.51657e-15
 6997.000  2.58126e-15
 6998.000  2.47699e-15
 6999.000  2.41411e-15
 7000.000  2.61317e-15
 7001.000  2.54403e-15
 7002.000  2.73587e-15
 7003.000  2.56102e-15
 7004.000  2.53613e-15
 7005.000  2.51450e-15
 7006.000  2.44709e-15
 7007.000  2.68183e-15
 7008.000  2.47835e-15
 7009.000  2.55639e-15
 7010.000  2.54089e-15
 7011.000  2.51714e-15
 7012.000  2.62338e-15
 7013.000  2.69073e-15
 7014.000  2.52845e-15
 7015.000  2.60964e-15
 7016.000  2.35512e-15
 7017.000  2.63099e-15
 7018.000  2.54335e-15
 7019.000  2.73825e-15
 7020.000  2.51565e-15
 7021.000  2.68766e-15
 7022.000  2.67625e-15
 7023.000  2.62382e-15
 7024.000  2.55143e-15
 7025.000  2.58401e-15
 7026.000  2.63704e-15
 7027.000  2.73864e-15
 7028.000  2.63589e-15
 7029.000  2.68306e-15
 7030.000  2.71735e-15
 7031.000  2.70506e-15
 7032.000  2.68175e-15
 7033.000  2.66318e-15
 7034.000  2.80261e-15
 7035.000  2.80467e-15
 7036.000  2.80706e-15
 7037.000  2.66210e-15
 7038.000  2.62506e-15
 7039.000  2.71012e-15
 7040.000  2.75944e-15
 7041.000  2.77171e-15
 7042.000  2.83665e-15
 7043.000  2.83067e-15
 7044.000  2.83816e-15
 7045.000  2.83569e-15
 7046.000  2.80126e-15
 7047.000  2.82917e-15
 7048.000  2.87734e-15
 7049.000  2.77561e-15
 7050.000  2.79651e-15
 7051.000  2.81070e-15
 7052.000  2.83604e-15
 7053.000  2.74162e-15
 7054.000  2.30845e-15
 7055.000  2.39789e-15
 7056.000  2.52981e-15
 7057.000  2.60439e-15
 7058.000  2.61139e-15
 7059.000  2.50446e-15
 7060.000  2.51490e-15
 7061.000  2.42359e-15
 7062.000  2.64548e-15
 7063.000  2.77978e-15
 7064.000  3.19550e-15
 7065.000  4.14778e-15
 7066.000  3.32972e-15
 7067.000  2.93543e-15
 7068.000  2.68419e-15
 7069.000  2.59702e-15
 7070.000  2.64694e-15
 7071.000  2.57077e-15
 7072.000  2.61359e-15
 7073.000  2.64321e-15
 7074.000  2.59719e-15
 7075.000  2.58636e-15
 7076.000  2.64823e-15
 7077.000  2.66589e-15
 7078.000  2.67374e-15
 7079.000  2.63308e-15
 7080.000  2.56615e-15
 7081.000  2.61574e-15
 7082.000  2.67583e-15
 7083.000  2.71387e-15
 7084.000  2.57824e-15
 7085.000  2.48876e-15
 7086.000  2.63411e-15
 7087.000  2.52888e-15
 7088.000  2.30831e-15
 7089.000  2.39242e-15
 7090.000  2.39971e-15
 7091.000  2.52194e-15
 7092.000  2.55118e-15
 7093.000  2.42662e-15
 7094.000  2.45698e-15
 7095.000  2.45627e-15
 7096.000  2.39340e-15
 7097.000  2.47482e-15
 7098.000  2.53348e-15
 7099.000  2.51111e-15
 7100.000  2.58561e-15
 7101.000  2.44740e-15
 7102.000  2.56842e-15
 7103.000  2.46581e-15
 7104.000  2.43650e-15
 7105.000  2.56942e-15
 7106.000  2.49288e-15
 7107.000  2.57074e-15
 7108.000  2.59394e-15
 7109.000  2.61812e-15
 7110.000  2.59950e-15
 7111.000  2.54759e-15
 7112.000  2.55859e-15
 7113.000  2.57979e-15
 7114.000  2.61951e-15
 7115.000  2.59525e-15
 7116.000  2.65540e-15
 7117.000  2.56217e-15
 7118.000  2.56675e-15
 7119.000  2.68397e-15
 7120.000  2.71221e-15
 7121.000  2.62334e-15
 7122.000  2.51643e-15
 7123.000  2.69720e-15
 7124.000  2.64828e-15
 7125.000  2.35398e-15
 7126.000  2.26252e-15
 7127.000  2.39071e-15
 7128.000  2.48154e-15
 7129.000  2.48056e-15
 7130.000  2.43707e-15
 7131.000  2.34681e-15
 7132.000  2.39516e-15
 7133.000  2.37098e-15
 7134.000  2.40948e-15
 7135.000  2.35790e-15
 7136.000  2.60967e-15
 7137.000  2.47862e-15
 7138.000  2.41060e-15
 7139.000  2.42063e-15
 7140.000  2.40066e-15
 7141.000  2.47287e-15
 7142.000  2.46119e-15
 7143.000  2.53180e-15
 7144.000  2.51822e-15
 7145.000  2.40032e-15
 7146.000  2.49323e-15
 7147.000  2.40188e-15
 7148.000  2.10590e-15
 7149.000  2.41721e-15
 7150.000  2.50613e-15
 7151.000  2.48615e-15
 7152.000  2.57928e-15
 7153.000  2.45245e-15
 7154.000  2.50183e-15
 7155.000  2.62879e-15
 7156.000  2.72298e-15
 7157.000  2.64073e-15
 7158.000  2.54717e-15
 7159.000  2.45763e-15
 7160.000  2.43114e-15
 7161.000  2.63610e-15
 7162.000  2.66160e-15
 7163.000  2.53771e-15
 7164.000  2.41047e-15
 7165.000  2.57298e-15
 7166.000  2.59062e-15
 7167.000  2.55246e-15
 7168.000  2.64247e-15
 7169.000  2.45263e-15
 7170.000  2.65329e-15
 7171.000  2.60904e-15
 7172.000  2.58711e-15
 7173.000  2.74091e-15
 7174.000  2.54573e-15
 7175.000  2.66724e-15
 7176.000  2.54044e-15
 7177.000  2.63944e-15
 7178.000  2.64259e-15
 7179.000  2.58943e-15
 7180.000  2.71048e-15
 7181.000  2.49574e-15
 7182.000  2.67627e-15
 7183.000  2.62894e-15
 7184.000  2.67070e-15
 7185.000  2.54879e-15
 7186.000  2.66654e-15
 7187.000  2.55791e-15
 7188.000  2.42956e-15
 7189.000  2.60210e-15
 7190.000  2.58789e-15
 7191.000  2.77862e-15
 7192.000  2.61891e-15
 7193.000  2.70216e-15
 7194.000  2.58010e-15
 7195.000  2.64176e-15
 7196.000  2.73667e-15
 7197.000  2.50042e-15
 7198.000  2.57783e-15
 7199.000  2.58420e-15
 7200.000  2.66436e-15
 7201.000  2.60620e-15
 7202.000  2.28079e-15
 7203.000  2.58988e-15
 7204.000  2.74078e-15
 7205.000  2.67796e-15
 7206.000  2.65096e-15
 7207.000  2.51341e-15
 7208.000  2.49445e-15
 7209.000  2.45250e-15
 7210.000  2.60620e-15
 7211.000  2.58922e-15
 7212.000  2.66612e-15
 7213.000  2.63939e-15
 7214.000  2.62949e-15
 7215.000  2.78811e-15
 7216.000  2.42506e-15
 7217.000  2.67039e-15
 7218.000  2.80185e-15
 7219.000  2.67377e-15
 7220.000  2.66271e-15
 7221.000  2.71710e-15
 7222.000  2.81784e-15
 7223.000  2.65322e-15
 7224.000  2.79388e-15
 7225.000  2.78736e-15
 7226.000  2.65973e-15
 7227.000  2.73601e-15
 7228.000  2.68149e-15
 7229.000  2.77947e-15
 7230.000  2.75927e-15
 7231.000  2.59128e-15
 7232.000  2.76304e-15
 7233.000  2.72644e-15
 7234.000  2.73634e-15
 7235.000  2.71078e-15
 7236.000  2.62485e-15
 7237.000  2.78761e-15
 7238.000  2.76283e-15
 7239.000  2.82541e-15
 7240.000  2.72007e-15
 7241.000  2.55666e-15
 7242.000  2.77904e-15
 7243.000  2.73533e-15
 7244.000  2.64644e-15
 7245.000  2.79307e-15
 7246.000  2.77132e-15
 7247.000  2.79833e-15
 7248.000  2.84650e-15
 7249.000  2.75360e-15
 7250.000  2.85999e-15
 7251.000  2.87350e-15
 7252.000  2.83282e-15
 7253.000  2.89417e-15
 7254.000  2.83822e-15
 7255.000  3.07888e-15
 7256.000  2.85935e-15
 7257.000  2.94407e-15
 7258.000  2.92260e-15
 7259.000  2.80100e-15
 7260.000  2.85158e-15
 7261.000  2.76247e-15
 7262.000  2.90607e-15
 7263.000  2.86080e-15
 7264.000  2.92608e-15
 7265.000  2.85360e-15
 7266.000  2.69522e-15
 7267.000  2.86896e-15
 7268.000  2.85434e-15
 7269.000  2.80168e-15
 7270.000  2.75332e-15
 7271.000  2.80167e-15
 7272.000  2.88048e-15
 7273.000  2.83579e-15
 7274.000  2.92361e-15
 7275.000  2.84030e-15
 7276.000  2.94297e-15
 7277.000  2.86716e-15
 7278.000  2.89056e-15
 7279.000  2.98021e-15
 7280.000  2.93091e-15
 7281.000  3.16353e-15
 7282.000  2.99783e-15
 7283.000  3.05445e-15
 7284.000  2.91925e-15
 7285.000  2.91715e-15
 7286.000  2.85152e-15
 7287.000  3.01451e-15
 7288.000  2.87956e-15
 7289.000  3.02368e-15
 7290.000  3.01570e-15
 7291.000  2.80238e-15
 7292.000  2.98549e-15
 7293.000  2.82436e-15
 7294.000  2.97103e-15
 7295.000  2.96387e-15
 7296.000  3.07095e-15
 7297.000  2.97630e-15
 7298.000  2.99368e-15
 7299.000  2.91911e-15
 7300.000  2.93634e-15
 7301.000  2.90500e-15
 7302.000  3.05595e-15
 7303.000  2.93349e-15
 7304.000  2.99508e-15
 7305.000  2.96769e-15
 7306.000  2.96465e-15
 7307.000  3.06435e-15
 7308.000  3.06004e-15
 7309.000  2.97756e-15
 7310.000  2.88109e-15
 7311.000  2.87824e-15
 7312.000  3.05766e-15
 7313.000  3.01888e-15
 7314.000  3.14877e-15
 7315.000  3.03235e-15
 7316.000  3.02055e-15
 7317.000  3.10078e-15
 7318.000  3.00433e-15
 7319.000  3.15736e-15
 7320.000  3.13372e-15
 7321.000  3.07800e-15
 7322.000  3.06149e-15
 7323.000  3.09003e-15
 7324.000  3.08297e-15
 7325.000  3.06977e-15
 7326.000  2.49798e-15
 7327.000  3.12987e-15
 7328.000  3.12534e-15
 7329.000  3.18957e-15
 7330.000  3.18736e-15
 7331.000  2.98316e-15
 7332.000  3.01322e-15
 7333.000  3.06400e-15
 7334.000  3.09648e-15
 7335.000  3.04605e-15
 7336.000  3.22169e-15
 7337.000  3.19214e-15
 7338.000  3.19314e-15
 7339.000  3.12520e-15
 7340.000  3.28922e-15
 7341.000  3.16453e-15
 7342.000  3.17181e-15
 7343.000  3.19442e-15
 7344.000  2.95361e-15
 7345.000  3.14137e-15
 7346.000  3.19205e-15
 7347.000  3.15617e-15
 7348.000  3.22111e-15
 7349.000  3.12835e-15
 7350.000  3.13808e-15
 7351.000  3.15989e-15
 7352.000  3.15123e-15
 7353.000  3.09232e-15
 7354.000  3.03635e-15
 7355.000  3.16852e-15
 7356.000  2.92044e-15
 7357.000  3.03448e-15
 7358.000  3.17892e-15
 7359.000  3.26616e-15
 7360.000  3.16458e-15
 7361.000  3.11655e-15
 7362.000  3.10394e-15
 7363.000  3.21790e-15
 7364.000  2.92249e-15
 7365.000  3.29932e-15
 7366.000  3.01933e-15
 7367.000  3.20783e-15
 7368.000  3.32568e-15
 7369.000  3.21801e-15
 7370.000  3.23808e-15
 7371.000  3.31063e-15
 7372.000  3.30540e-15
 7373.000  3.29752e-15
 7374.000  3.22977e-15
 7375.000  3.24824e-15
 7376.000  3.34921e-15
 7377.000  3.21118e-15
 7378.000  3.31474e-15
 7379.000  3.30848e-15
 7380.000  3.33459e-15
 7381.000  3.28549e-15
 7382.000  3.19610e-15
 7383.000  3.31122e-15
 7384.000  3.25681e-15
 7385.000  3.28441e-15
 7386.000  3.23927e-15
 7387.000  3.25150e-15
 7388.000  3.34200e-15
 7389.000  3.19570e-15
 7390.000  3.29104e-15
 7391.000  3.07937e-15
 7392.000  3.26313e-15
 7393.000  3.27145e-15
 7394.000  3.30993e-15
 7395.000  3.32491e-15
 7396.000  3.38109e-15
 7397.000  3.31300e-15
 7398.000  3.36665e-15
 7399.000  3.28590e-15
 7400.000  2.81902e-15
 7401.000  3.30522e-15
 7402.000  3.36825e-15
 7403.000  3.37431e-15
 7404.000  3.37413e-15
 7405.000  3.34160e-15
 7406.000  3.34399e-15
 7407.000  3.37852e-15
 7408.000  3.25248e-15
 7409.000  3.24183e-15
 7410.000  3.39511e-15
 7411.000  3.11246e-15
 7412.000  3.34899e-15
 7413.000  3.39754e-15
 7414.000  3.23346e-15
 7415.000  3.38890e-15
 7416.000  3.44368e-15
 7417.000  3.24317e-15
 7418.000  3.34831e-15
 7419.000  3.35576e-15
 7420.000  3.37082e-15
 7421.000  3.41952e-15
 7422.000  3.13435e-15
 7423.000  3.26913e-15
 7424.000  3.39017e-15
 7425.000  3.34985e-15
 7426.000  3.33772e-15
 7427.000  3.43465e-15
 7428.000  3.50631e-15
 7429.000  3.37078e-15
 7430.000  3.35918e-15
 7431.000  3.37505e-15
 7432.000  3.46200e-15
 7433.000  3.41212e-15
 7434.000  3.33389e-15
 7435.000  3.53319e-15
 7436.000  3.43792e-15
 7437.000  3.41272e-15
 7438.000  3.47800e-15
 7439.000  3.44310e-15
 7440.000  3.29002e-15
 7441.000  3.33135e-15
 7442.000  3.39511e-15
 7443.000  3.38549e-15
 7444.000  3.41115e-15
 7445.000  3.32376e-15
 7446.000  3.33738e-15
 7447.000  3.36683e-15
 7448.000  3.38447e-15
 7449.000  3.42780e-15
 7450.000  3.47330e-15
 7451.000  3.30592e-15
 7452.000  3.42126e-15
 7453.000  3.47624e-15
 7454.000  3.44813e-15
 7455.000  3.62243e-15
 7456.000  3.41218e-15
 7457.000  3.44791e-15
 7458.000  3.43517e-15
 7459.000  3.44104e-15
 7460.000  3.54889e-15
 7461.000  3.33591e-15
 7462.000  2.92266e-15
 7463.000  3.45230e-15
 7464.000  3.42410e-15
 7465.000  3.50393e-15
 7466.000  3.52294e-15
 7467.000  3.50245e-15
 7468.000  3.42926e-15
 7469.000  3.52941e-15
 7470.000  3.48708e-15
 7471.000  3.42354e-15
 7472.000  3.43162e-15
 7473.000  3.45813e-15
 7474.000  3.46109e-15
 7475.000  3.43404e-15
 7476.000  3.41655e-15
 7477.000  3.54888e-15
 7478.000  3.51741e-15
 7479.000  3.54080e-15
 7480.000  3.37252e-15
 7481.000  3.50152e-15
 7482.000  3.43087e-15
 7483.000  3.53158e-15
 7484.000  3.52624e-15
 7485.000  3.51175e-15
 7486.000  3.45711e-15
 7487.000  3.55012e-15
 7488.000  3.50260e-15
 7489.000  3.36507e-15
 7490.000  3.49266e-15
 7491.000  3.33751e-15
 7492.000  3.55614e-15
 7493.000  3.56487e-15
 7494.000  3.41514e-15
 7495.000  3.28863e-15
 7496.000  3.40094e-15
 7497.000  3.47387e-15
 7498.000  3.61045e-15
 7499.000  3.61187e-15
 7500.000  3.57195e-15
 7501.000  3.57312e-15
 7502.000  3.56808e-15
 7503.000  3.60419e-15
 7504.000  3.59669e-15
 7505.000  3.57569e-15
 7506.000  3.46761e-15
 7507.000  3.37333e-15
 7508.000  3.62718e-15
 7509.000  3.61427e-15
 7510.000  3.60170e-15
 7511.000  3.26944e-15
 7512.000  3.59707e-15
 7513.000  3.62637e-15
 7514.000  3.65643e-15
 7515.000  3.59322e-15
 7516.000  3.72954e-15
 7517.000  3.61319e-15
 7518.000  3.74859e-15
 7519.000  3.60394e-15
 7520.000  3.68383e-15
 7521.000  3.58502e-15
 7522.000  3.59307e-15
 7523.000  3.64006e-15
 7524.000  3.64277e-15
 7525.000  3.54215e-15
 7526.000  3.60378e-15
 7527.000  3.61412e-15
 7528.000  3.54197e-15
 7529.000  3.47301e-15
 7530.000  3.71521e-15
 7531.000  3.42245e-15
 7532.000  3.73678e-15
 7533.000  3.60411e-15
 7534.000  3.64908e-15
 7535.000  3.74573e-15
 7536.000  3.63813e-15
 7537.000  3.71486e-15
 7538.000  3.72569e-15
 7539.000  3.66618e-15
 7540.000  3.70065e-15
 7541.000  3.57415e-15
 7542.000  3.73754e-15
 7543.000  3.73171e-15
 7544.000  3.73622e-15
 7545.000  3.73134e-15
 7546.000  3.66608e-15
 7547.000  3.69231e-15
 7548.000  3.67749e-15
 7549.000  3.70557e-15
 7550.000  3.77366e-15
 7551.000  3.69070e-15
 7552.000  3.66135e-15
 7553.000  3.68607e-15
 7554.000  3.67614e-15
 7555.000  3.58215e-15
 7556.000  3.70949e-15
 7557.000  3.71906e-15
 7558.000  3.72838e-15
 7559.000  3.72106e-15
 7560.000  3.70566e-15
 7561.000  3.74715e-15
 7562.000  3.67191e-15
 7563.000  3.61422e-15
 7564.000  3.76003e-15
 7565.000  3.65116e-15
 7566.000  3.72993e-15
 7567.000  3.68590e-15
 7568.000  3.61452e-15
 7569.000  3.60603e-15
 7570.000  3.73147e-15
 7571.000  3.70801e-15
 7572.000  3.77131e-15
 7573.000  3.75223e-15
 7574.000  3.66866e-15
 7575.000  3.74538e-15
 7576.000  3.75235e-15
 7577.000  3.69296e-15
 7578.000  3.67300e-15
 7579.000  3.70206e-15
 7580.000  3.69959e-15
 7581.000  3.77254e-15
 7582.000  3.65800e-15
 7583.000  3.68859e-15
 7584.000  3.76881e-15
 7585.000  3.73470e-15
 7586.000  3.42182e-15
 7587.000  3.73827e-15
 7588.000  3.66717e-15
 7589.000  3.39794e-15
 7590.000  3.42472e-15
 7591.000  3.47425e-15
 7592.000  3.50531e-15
 7593.000  3.55857e-15
 7594.000  3.50363e-15
 7595.000  3.52297e-15
 7596.000  3.43104e-15
 7597.000  3.61393e-15
 7598.000  3.34702e-15
 7599.000  2.81908e-15
 7600.000  3.49300e-15
 7601.000  3.31932e-15
 7602.000  3.05996e-15
 7603.000  3.44277e-15
 7604.000  3.45463e-15
 7605.000  3.33833e-15
 7606.000  3.18612e-15
 7607.000  3.01555e-15
 7608.000  3.13203e-15
 7609.000  3.63160e-15
 7610.000  3.35823e-15
 7611.000  3.63385e-15
 7612.000  3.46390e-15
 7613.000  3.58016e-15
 7614.000  3.50371e-15
 7615.000  3.35758e-15
 7616.000  3.49822e-15
 7617.000  3.46034e-15
 7618.000  3.53370e-15
 7619.000  3.48214e-15
 7620.000  3.58158e-15
 7621.000  3.26742e-15
 7622.000  3.45048e-15
 7623.000  3.61719e-15
 7624.000  3.66918e-15
 7625.000  3.35094e-15
 7626.000  3.57972e-15
 7627.000  3.44044e-15
 7628.000  3.19989e-15
 7629.000  3.33928e-15
 7630.000  3.56119e-15
 7631.000  3.32717e-15
 7632.000  3.38326e-15
 7633.000  3.50915e-15
 7634.000  3.38870e-15
 7635.000  3.48650e-15
 7636.000  3.44531e-15
 7637.000  3.41044e-15
 7638.000  3.33228e-15
 7639.000  3.35615e-15
 7640.000  3.19633e-15
 7641.000  2.91303e-15
 7642.000  3.44493e-15
 7643.000  3.43299e-15
 7644.000  3.41297e-15
 7645.000  3.47609e-15
 7646.000  3.42070e-15
 7647.000  3.55071e-15
 7648.000  3.47577e-15
 7649.000  3.60578e-15
 7650.000  3.50667e-15
 7651.000  3.54917e-15
 7652.000  3.45893e-15
 7653.000  3.49150e-15
 7654.000  3.35809e-15
 7655.000  3.69057e-15
 7656.000  3.53150e-15
 7657.000  3.45870e-15
 7658.000  3.47121e-15
 7659.000  3.51137e-15
 7660.000  3.58406e-15
 7661.000  3.26970e-15
 7662.000  3.48280e-15
 7663.000  3.51413e-15
 7664.000  3.04010e-15
 7665.000  2.88193e-15
 7666.000  3.23557e-15
 7667.000  3.46629e-15
 7668.000  3.41910e-15
 7669.000  3.40816e-15
 7670.000  3.42490e-15
 7671.000  3.26581e-15
 7672.000  3.27661e-15
 7673.000  3.33409e-15
 7674.000  3.39028e-15
 7675.000  3.36845e-15
 7676.000  3.39352e-15
 7677.000  3.38407e-15
 7678.000  3.31846e-15
 7679.000  3.39579e-15
 7680.000  3.36824e-15
 7681.000  3.45155e-15
 7682.000  3.50758e-15
 7683.000  3.35293e-15
 7684.000  3.44110e-15
 7685.000  3.42142e-15
 7686.000  3.48605e-15
 7687.000  3.52899e-15
 7688.000  3.59482e-15
 7689.000  3.42367e-15
 7690.000  3.64875e-15
 7691.000  3.40879e-15
 7692.000  3.57282e-15
 7693.000  3.59267e-15
 7694.000  3.43411e-15
 7695.000  3.55988e-15
 7696.000  3.60879e-15
 7697.000  3.47543e-15
 7698.000  3.27396e-15
 7699.000  3.05234e-15
 7700.000  3.64602e-15
 7701.000  3.60503e-15
 7702.000  3.54718e-15
 7703.000  3.83368e-15
 7704.000  3.58830e-15
 7705.000  3.42642e-15
 7706.000  3.43253e-15
 7707.000  3.44759e-15
 7708.000  3.55707e-15
 7709.000  3.55546e-15
 7710.000  3.38099e-15
 7711.000  3.52428e-15
 7712.000  3.67766e-15
 7713.000  3.48243e-15
 7714.000  3.23723e-15
 7715.000  3.51515e-15
 7716.000  3.52860e-15
 7717.000  3.56523e-15
 7718.000  3.64484e-15
 7719.000  3.58774e-15
 7720.000  3.54035e-15
 7721.000  3.69775e-15
 7722.000  3.45697e-15
 7723.000  3.40073e-15
 7724.000  3.60044e-15
 7725.000  3.62866e-15
 7726.000  3.56505e-15
 7727.000  3.50609e-15
 7728.000  3.54989e-15
 7729.000  3.69290e-15
 7730.000  3.56693e-15
 7731.000  3.64640e-15
 7732.000  3.61361e-15
 7733.000  3.70171e-15
 7734.000  3.74278e-15
 7735.000  3.65298e-15
 7736.000  3.74521e-15
 7737.000  3.63355e-15
 7738.000  3.80324e-15
 7739.000  3.70600e-15
 7740.000  3.72960e-15
 7741.000  3.65413e-15
 7742.000  3.78251e-15
 7743.000  3.48984e-15
 7744.000  3.62485e-15
 7745.000  3.56241e-15
 7746.000  3.64341e-15
 7747.000  3.61564e-15
 7748.000  3.34360e-15
 7749.000  3.53869e-15
 7750.000  3.57025e-15
 7751.000  3.45800e-15
 7752.000  3.68523e-15
 7753.000  3.45150e-15
 7754.000  3.62465e-15
 7755.000  3.53099e-15
 7756.000  3.68705e-15
 7757.000  3.53045e-15
 7758.000  3.58957e-15
 7759.000  3.70145e-15
 7760.000  3.63066e-15
 7761.000  3.75380e-15
 7762.000  3.61950e-15
 7763.000  3.67997e-15
 7764.000  3.60155e-15
 7765.000  3.62214e-15
 7766.000  3.76655e-15
 7767.000  3.72732e-15
 7768.000  3.89205e-15
 7769.000  4.28015e-15
 7770.000  4.80502e-15
 7771.000  5.30966e-15
 7772.000  5.91802e-15
 7773.000  5.56900e-15
 7774.000  5.56559e-15
 7775.000  5.41367e-15
 7776.000  4.85493e-15
 7777.000  4.33603e-15
 7778.000  3.82902e-15
 7779.000  3.63795e-15
 7780.000  3.37369e-15
 7781.000  3.45931e-15
 7782.000  3.67430e-15
 7783.000  3.61706e-15
 7784.000  3.68334e-15
 7785.000  3.73240e-15
 7786.000  3.44109e-15
 7787.000  3.67694e-15
 7788.000  3.61875e-15
 7789.000  3.57523e-15
 7790.000  3.56515e-15
 7791.000  3.68164e-15
 7792.000  3.78611e-15
 7793.000  3.71538e-15
 7794.000  3.77676e-15
 7795.000  3.78754e-15
 7796.000  3.73137e-15
 7797.000  3.90590e-15
 7798.000  3.72577e-15
 7799.000  3.75306e-15
 7800.000  3.27958e-15
 7801.000  3.78365e-15
 7802.000  3.71152e-15
 7803.000  3.86486e-15
 7804.000  3.73238e-15
 7805.000  3.87401e-15
 7806.000  3.74325e-15
 7807.000  3.77114e-15
 7808.000  3.79320e-15
 7809.000  3.91931e-15
 7810.000  3.82557e-15
 7811.000  3.68977e-15
 7812.000  3.73893e-15
 7813.000  3.91568e-15
 7814.000  3.84388e-15
 7815.000  3.98879e-15
 7816.000  3.89091e-15
 7817.000  3.76692e-15
 7818.000  3.92159e-15
 7819.000  3.85662e-15
 7820.000  3.71929e-15
 7821.000  3.68072e-15
 7822.000  3.87318e-15
 7823.000  3.75637e-15
 7824.000  3.82481e-15
 7825.000  3.79311e-15
 7826.000  3.83768e-15
 7827.000  3.86156e-15
 7828.000  3.63155e-15
 7829.000  3.70892e-15
 7830.000  3.66932e-15
 7831.000  3.78817e-15
 7832.000  3.45133e-15
 7833.000  3.72088e-15
 7834.000  3.83655e-15
 7835.000  3.59681e-15
 7836.000  3.60304e-15
 7837.000  3.73220e-15
 7838.000  3.87401e-15
 7839.000  3.76687e-15
 7840.000  3.74610e-15
 7841.000  3.86548e-15
 7842.000  3.80230e-15
 7843.000  3.84045e-15
 7844.000  3.87301e-15
 7845.000  3.89869e-15
 7846.000  3.63763e-15
 7847.000  3.77992e-15
 7848.000  3.85863e-15
 7849.000  3.77905e-15
 7850.000  3.86159e-15
 7851.000  3.92706e-15
 7852.000  3.73398e-15
 7853.000  3.90427e-15
 7854.000  3.91034e-15
 7855.000  3.80125e-15
 7856.000  3.92694e-15
 7857.000  3.92703e-15
 7858.000  3.84444e-15
 7859.000  3.82071e-15
 7860.000  3.85631e-15
 7861.000  3.82954e-15
 7862.000  3.85029e-15
 7863.000  3.93896e-15
 7864.000  3.81985e-15
 7865.000  3.94828e-15
 7866.000  3.85796e-15
 7867.000  3.94873e-15
 7868.000  3.89107e-15
 7869.000  3.86287e-15
 7870.000  3.84079e-15
 7871.000  3.89574e-15
 7872.000  3.87535e-15
 7873.000  3.84386e-15
 7874.000  3.91356e-15
 7875.000  3.92997e-15
 7876.000  4.06019e-15
 7877.000  3.86808e-15
 7878.000  3.78417e-15
 7879.000  3.97780e-15
 7880.000  4.01135e-15
 7881.000  3.86369e-15
 7882.000  3.97191e-15
 7883.000  4.05263e-15
 7884.000  3.90487e-15
 7885.000  3.88354e-15
 7886.000  4.03423e-15
 7887.000  4.34528e-15
 7888.000  4.01491e-15
 7889.000  3.92906e-15
 7890.000  4.00227e-15
 7891.000  3.92826e-15
 7892.000  4.00879e-15
 7893.000  4.06340e-15
 7894.000  4.04285e-15
 7895.000  3.92411e-15
 7896.000  3.99693e-15
 7897.000  4.11404e-15
 7898.000  4.03396e-15
 7899.000  4.07171e-15
 7900.000  4.07833e-15
 7901.000  3.97363e-15
 7902.000  3.88605e-15
 7903.000  4.03077e-15
 7904.000  4.04128e-15
 7905.000  3.95622e-15
 7906.000  4.05017e-15
 7907.000  3.89993e-15
 7908.000  3.93717e-15
 7909.000  3.83114e-15
 7910.000  4.00774e-15
 7911.000  3.85038e-15
 7912.000  3.84391e-15
 7913.000  4.01140e-15
 7914.000  4.09233e-15
 7915.000  3.97296e-15
 7916.000  3.96947e-15
 7917.000  3.93889e-15
 7918.000  3.95476e-15
 7919.000  4.05955e-15
 7920.000  4.06274e-15
 7921.000  3.91577e-15
 7922.000  4.04745e-15
 7923.000  4.08194e-15
 7924.000  3.99066e-15
 7925.000  4.04497e-15
 7926.000  4.00139e-15
 7927.000  4.07804e-15
 7928.000  4.08125e-15
 7929.000  3.98185e-15
 7930.000  4.05509e-15
 7931.000  4.18033e-15
 7932.000  4.07028e-15
 7933.000  4.09009e-15
 7934.000  4.18048e-15
 7935.000  4.08573e-15
 7936.000  4.09479e-15
 7937.000  3.75293e-15
 7938.000  4.06223e-15
 7939.000  4.10623e-15
 7940.000  4.16777e-15
 7941.000  4.02644e-15
 7942.000  4.14406e-15
 7943.000  4.09340e-15
 7944.000  4.09451e-15
 7945.000  4.06903e-15
 7946.000  3.93022e-15
 7947.000  3.94493e-15
 7948.000  4.17372e-15
 7949.000  3.90312e-15
 7950.000  4.20873e-15
 7951.000  4.20723e-15
 7952.000  4.35162e-15
 7953.000  4.24849e-15
 7954.000  4.17192e-15
 7955.000  4.27483e-15
 7956.000  4.21784e-15
 7957.000  4.36244e-15
 7958.000  4.28374e-15
 7959.000  4.12279e-15
 7960.000  4.24426e-15
 7961.000  4.11422e-15
 7962.000  4.27039e-15
 7963.000  4.13265e-15
 7964.000  4.32054e-15
 7965.000  4.29298e-15
 7966.000  4.27276e-15
 7967.000  4.34730e-15
 7968.000  4.33444e-15
 7969.000  4.31204e-15
 7970.000  4.27574e-15
 7971.000  4.37664e-15
 7972.000  4.26926e-15
 7973.000  4.40265e-15
 7974.000  4.31390e-15
 7975.000  4.37751e-15
 7976.000  4.29087e-15
 7977.000  4.41139e-15
 7978.000  4.33096e-15
 7979.000  4.19687e-15
 7980.000  4.35699e-15
 7981.000  4.33462e-15
 7982.000  4.33402e-15
 7983.000  4.36934e-15
 7984.000  4.32637e-15
 7985.000  4.35668e-15
 7986.000  4.30429e-15
 7987.000  4.25561e-15
 7988.000  4.27228e-15
 7989.000  4.31059e-15
 7990.000  4.52718e-15
 7991.000  4.31979e-15
 7992.000  4.37145e-15
 7993.000  4.30797e-15
 7994.000  4.24956e-15
 7995.000  4.29099e-15
 7996.000  4.25877e-15
 7997.000  4.41732e-15
 7998.000  4.29745e-15
 7999.000  4.22246e-15
